onset	duration	trial_type	Object_Cond	Validity_Cond	Obj_Accuracy	Obj_Acc_RT	Subseq_Recog	Subseq_Recog_RT	Subseq_Source_Mem_Acc	Subseq_Source_Mem_Acc_RT
4.000	1.000	Valid Other Obj Cue: valid cue where following stimulus was an untested or no response object	OBJ	V	1	0.754	UT	UT	UT	UT
8.000	0.500	Valid Other Obj: stimulus that was an untested or no response object and that followed a valid cue	OBJ	V	1	0.754	UT	UT	UT	UT
10.001	1.000	Valid Other Greeble Cue: valid cue where following stimulus was an untested or no response greeble	GRE	V	1	0.837	UT	UT	UT	UT
14.001	0.500	Valid Other Greeble: stimulus that was an untested or no response greeble and that followed a valid cue	GRE	V	1	0.837	UT	UT	UT	UT
16.002	1.000	Valid Miss Cue: valid cue where following object was a subsequent miss	OBJ	V	1	0.654	LC-MISS	 1.5235	UT	UT
20.002	0.500	Valid Miss Obj: object that was a subsequent miss and that followed a valid cue	OBJ	V	1	0.654	LC-MISS	 1.5235	UT	UT
26.001	1.000	Valid Miss Cue: valid cue where following object was a subsequent miss	OBJ	V	1	0.618	HC-MISS	 1.5519	UT	UT
32.001	0.500	Valid Miss Obj: object that was a subsequent miss and that followed a valid cue	OBJ	V	1	0.618	HC-MISS	 1.5519	UT	UT
34.002	1.000	Valid HC-Hit Cue: valid cue where following object was a subsequent high confidence hit	OBJ	V	1	1.077	HC-HIT	 1.9261	1	2.0427
36.002	0.500	Valid HC-Hit Obj: object that was a subsequent high confidence hit and that followed a valid cue	OBJ	V	1	1.077	HC-HIT	 1.9261	1	2.0427
38.002	1.000	Invalid Miss Cue: invalid cue where following object was a subsequent miss	OBJ	NV	1	1.303	LC-MISS	 1.1009	UT	UT
42.002	0.500	Invalid Miss Obj: object that was a subsequent miss and that followed an invalid cue	OBJ	NV	1	1.303	LC-MISS	 1.1009	UT	UT
46.001	1.000	Valid Other Greeble Cue: valid cue where following stimulus was an untested or no response greeble	GRE	V	1	0.807	UT	UT	UT	UT
50.001	0.500	Valid Other Greeble: stimulus that was an untested or no response greeble and that followed a valid cue	GRE	V	1	0.807	UT	UT	UT	UT
52.002	1.000	Valid Miss Cue: valid cue where following object was a subsequent miss	OBJ	V	1	0.834	LC-MISS	  1.598	UT	UT
54.002	0.500	Valid Miss Obj: object that was a subsequent miss and that followed a valid cue	OBJ	V	1	0.834	LC-MISS	  1.598	UT	UT
56.002	1.000	Valid Miss Cue: valid cue where following object was a subsequent miss	OBJ	V	1	0.730	LC-MISS	 3.0432	UT	UT
62.002	0.500	Valid Miss Obj: object that was a subsequent miss and that followed a valid cue	OBJ	V	1	0.730	LC-MISS	 3.0432	UT	UT
64.001	1.000	Invalid Miss Cue: invalid cue where following object was a subsequent miss	OBJ	NV	1	0.886	HC-MISS	 1.0441	UT	UT
66.001	0.500	Invalid Miss Obj: object that was a subsequent miss and that followed an invalid cue	OBJ	NV	1	0.886	HC-MISS	 1.0441	UT	UT
72.001	1.000	Valid Miss Cue: valid cue where following object was a subsequent miss	OBJ	V	1	0.651	LC-MISS	 1.0304	UT	UT
76.001	0.500	Valid Miss Obj: object that was a subsequent miss and that followed a valid cue	OBJ	V	1	0.651	LC-MISS	 1.0304	UT	UT
78.001	1.000	Valid HC-Hit Cue: valid cue where following object was a subsequent high confidence hit	OBJ	V	1	0.843	HC-HIT	 1.5284	1	2.5428
84.001	0.500	Valid HC-Hit Obj: object that was a subsequent high confidence hit and that followed a valid cue	OBJ	V	1	0.843	HC-HIT	 1.5284	1	2.5428
86.001	1.000	Valid Other Greeble Cue: valid cue where following stimulus was an untested or no response greeble	GRE	V	1	0.915	UT	UT	UT	UT
92.001	0.500	Valid Other Greeble: stimulus that was an untested or no response greeble and that followed a valid cue	GRE	V	1	0.915	UT	UT	UT	UT
94.001	1.000	Valid Miss Cue: valid cue where following object was a subsequent miss	OBJ	V	1	0.789	LC-MISS	 1.3402	UT	UT
98.001	0.500	Valid Miss Obj: object that was a subsequent miss and that followed a valid cue	OBJ	V	1	0.789	LC-MISS	 1.3402	UT	UT
100.001	1.000	Invalid Miss Cue: invalid cue where following object was a subsequent miss	OBJ	NV	1	0.966	LC-MISS	0.88538	UT	UT
104.001	0.500	Invalid Miss Obj: object that was a subsequent miss and that followed an invalid cue	OBJ	NV	1	0.966	LC-MISS	0.88538	UT	UT
106.001	1.000	Invalid Miss Cue: invalid cue where following object was a subsequent miss	OBJ	NV	1	0.914	LC-MISS	 1.1133	UT	UT
108.001	0.500	Invalid Miss Obj: object that was a subsequent miss and that followed an invalid cue	OBJ	NV	1	0.914	LC-MISS	 1.1133	UT	UT
112.001	1.000	Valid HC-Hit Cue: valid cue where following object was a subsequent high confidence hit	OBJ	V	1	0.755	HC-HIT	 1.7539	1	1.2618
114.001	0.500	Valid HC-Hit Obj: object that was a subsequent high confidence hit and that followed a valid cue	OBJ	V	1	0.755	HC-HIT	 1.7539	1	1.2618
116.002	1.000	Valid Other Greeble Cue: valid cue where following stimulus was an untested or no response greeble	GRE	V	1	0.743	UT	UT	UT	UT
118.002	0.500	Valid Other Greeble: stimulus that was an untested or no response greeble and that followed a valid cue	GRE	V	1	0.743	UT	UT	UT	UT
120.001	1.000	Valid Miss Cue: valid cue where following object was a subsequent miss	OBJ	V	1	0.673	LC-MISS	 2.7224	UT	UT
124.001	0.500	Valid Miss Obj: object that was a subsequent miss and that followed a valid cue	OBJ	V	1	0.673	LC-MISS	 2.7224	UT	UT
126.001	1.000	Valid Other Greeble Cue: valid cue where following stimulus was an untested or no response greeble	GRE	V	1	0.744	UT	UT	UT	UT
132.001	0.500	Valid Other Greeble: stimulus that was an untested or no response greeble and that followed a valid cue	GRE	V	1	0.744	UT	UT	UT	UT
136.001	1.000	Valid Miss Cue: valid cue where following object was a subsequent miss	OBJ	V	1	0.602	HC-MISS	 1.5615	UT	UT
138.001	0.500	Valid Miss Obj: object that was a subsequent miss and that followed a valid cue	OBJ	V	1	0.602	HC-MISS	 1.5615	UT	UT
140.002	1.000	Valid HC-Hit Cue: valid cue where following object was a subsequent high confidence hit	OBJ	V	1	0.642	HC-HIT	   1.17	0	0.68908
146.002	0.500	Valid HC-Hit Obj: object that was a subsequent high confidence hit and that followed a valid cue	OBJ	V	1	0.642	HC-HIT	   1.17	0	0.68908
150.001	1.000	Valid HC-Hit Cue: valid cue where following object was a subsequent high confidence hit	OBJ	V	1	0.908	HC-HIT	 1.5687	1	0.57534
152.001	0.500	Valid HC-Hit Obj: object that was a subsequent high confidence hit and that followed a valid cue	OBJ	V	1	0.908	HC-HIT	 1.5687	1	0.57534
154.001	1.000	Valid Other Greeble Cue: valid cue where following stimulus was an untested or no response greeble	GRE	V	1	0.757	UT	UT	UT	UT
160.001	0.500	Valid Other Greeble: stimulus that was an untested or no response greeble and that followed a valid cue	GRE	V	1	0.757	UT	UT	UT	UT
162.002	1.000	Valid Other Greeble Cue: valid cue where following stimulus was an untested or no response greeble	GRE	V	1	1.163	UT	UT	UT	UT
168.002	0.500	Valid Other Greeble: stimulus that was an untested or no response greeble and that followed a valid cue	GRE	V	1	1.163	UT	UT	UT	UT
170.001	1.000	Valid Other Greeble Cue: valid cue where following stimulus was an untested or no response greeble	GRE	V	1	0.879	UT	UT	UT	UT
172.001	0.500	Valid Other Greeble: stimulus that was an untested or no response greeble and that followed a valid cue	GRE	V	1	0.879	UT	UT	UT	UT
174.002	1.000	Invalid Miss Cue: invalid cue where following object was a subsequent miss	OBJ	NV	1	0.888	LC-MISS	 2.6755	UT	UT
178.002	0.500	Invalid Miss Obj: object that was a subsequent miss and that followed an invalid cue	OBJ	NV	1	0.888	LC-MISS	 2.6755	UT	UT
180.001	1.000	Valid Miss Cue: valid cue where following object was a subsequent miss	OBJ	V	1	0.745	LC-MISS	 1.7312	UT	UT
186.001	0.500	Valid Miss Obj: object that was a subsequent miss and that followed a valid cue	OBJ	V	1	0.745	LC-MISS	 1.7312	UT	UT
188.001	1.000	Valid Other Greeble Cue: valid cue where following stimulus was an untested or no response greeble	GRE	V	1	0.819	UT	UT	UT	UT
190.001	0.500	Valid Other Greeble: stimulus that was an untested or no response greeble and that followed a valid cue	GRE	V	1	0.819	UT	UT	UT	UT
192.001	1.000	Invalid Other Greeble Cue: invalid cue where following stimulus was an untested or no response greeble	GRE	NV	1	1.317	UT	UT	UT	UT
196.001	0.500	Invalid Other Greeble: stimulus that was an untested or no response greeble and that followed a invalid cue	GRE	NV	1	1.317	UT	UT	UT	UT
198.001	1.000	Valid Miss Cue: valid cue where following object was a subsequent miss	OBJ	V	1	1.273	LC-MISS	 3.4845	UT	UT
200.001	0.500	Valid Miss Obj: object that was a subsequent miss and that followed a valid cue	OBJ	V	1	1.273	LC-MISS	 3.4845	UT	UT
202.002	1.000	Valid Other Obj Cue: valid cue where following stimulus was an untested or no response object	OBJ	V	1	0.672	UT	UT	UT	UT
208.002	0.500	Valid Other Obj: stimulus that was an untested or no response object and that followed a valid cue	OBJ	V	1	0.672	UT	UT	UT	UT
210.002	1.000	Valid Miss Cue: valid cue where following object was a subsequent miss	OBJ	V	1	0.777	HC-MISS	 1.9613	UT	UT
216.002	0.500	Valid Miss Obj: object that was a subsequent miss and that followed a valid cue	OBJ	V	1	0.777	HC-MISS	 1.9613	UT	UT
218.002	1.000	Valid Other Greeble Cue: valid cue where following stimulus was an untested or no response greeble	GRE	V	1	0.840	UT	UT	UT	UT
224.002	0.500	Valid Other Greeble: stimulus that was an untested or no response greeble and that followed a valid cue	GRE	V	1	0.840	UT	UT	UT	UT
226.002	1.000	Valid LC-Hit Cue: valid cue where following object was a subsequent low confidence hit	OBJ	V	1	0.795	LC-HIT	 2.7393	0	1.7349
228.002	0.500	Valid LC-Hit Obj: object that was a subsequent low confidence hit and that followed a valid cue	OBJ	V	1	0.795	LC-HIT	 2.7393	0	1.7349
230.002	1.000	Valid Other Greeble Cue: valid cue where following stimulus was an untested or no response greeble	GRE	V	1	0.840	UT	UT	UT	UT
232.002	0.500	Valid Other Greeble: stimulus that was an untested or no response greeble and that followed a valid cue	GRE	V	1	0.840	UT	UT	UT	UT
234.001	1.000	Invalid LC-Hit Cue: invalid cue where following object was a subsequent low confidence hit	OBJ	NV	1	1.079	LC-HIT	 1.5288	0	0.42928
240.001	0.500	Invalid LC-Hit Obj: object that was a subsequent low confidence hit and that followed an invalid cue	OBJ	NV	1	1.079	LC-HIT	 1.5288	0	0.42928
244.001	1.000	Valid Other Greeble Cue: valid cue where following stimulus was an untested or no response greeble	GRE	V	1	1.004	UT	UT	UT	UT
250.001	0.500	Valid Other Greeble: stimulus that was an untested or no response greeble and that followed a valid cue	GRE	V	1	1.004	UT	UT	UT	UT
254.003	1.000	Valid Other Obj Cue: valid cue where following stimulus was an untested or no response object	OBJ	V	1	0.707	UT	UT	UT	UT
258.003	0.500	Valid Other Obj: stimulus that was an untested or no response object and that followed a valid cue	OBJ	V	1	0.707	UT	UT	UT	UT
260.002	1.000	Valid Miss Cue: valid cue where following object was a subsequent miss	OBJ	V	1	0.901	LC-MISS	 2.4762	UT	UT
264.002	0.500	Valid Miss Obj: object that was a subsequent miss and that followed a valid cue	OBJ	V	1	0.901	LC-MISS	 2.4762	UT	UT
266.002	1.000	Valid Miss Cue: valid cue where following object was a subsequent miss	OBJ	V	1	1.991	LC-MISS	 1.1805	UT	UT
270.002	0.500	Valid Miss Obj: object that was a subsequent miss and that followed a valid cue	OBJ	V	1	1.991	LC-MISS	 1.1805	UT	UT
274.002	1.000	Valid Other Obj Cue: valid cue where following stimulus was an untested or no response object	OBJ	V	1	0.973	UT	UT	UT	UT
280.002	0.500	Valid Other Obj: stimulus that was an untested or no response object and that followed a valid cue	OBJ	V	1	0.973	UT	UT	UT	UT
282.001	1.000	Valid Miss Cue: valid cue where following object was a subsequent miss	OBJ	V	1	0.720	LC-MISS	 2.6158	UT	UT
284.001	0.500	Valid Miss Obj: object that was a subsequent miss and that followed a valid cue	OBJ	V	1	0.720	LC-MISS	 2.6158	UT	UT
288.002	1.000	Invalid Other Greeble Cue: invalid cue where following stimulus was an untested or no response greeble	GRE	NV	1	0.995	UT	UT	UT	UT
290.002	0.500	Invalid Other Greeble: stimulus that was an untested or no response greeble and that followed a invalid cue	GRE	NV	1	0.995	UT	UT	UT	UT
292.001	1.000	Valid LC-Hit Cue: valid cue where following object was a subsequent low confidence hit	OBJ	V	1	0.780	LC-HIT	 2.7028	NR	NR
296.001	0.500	Valid LC-Hit Obj: object that was a subsequent low confidence hit and that followed a valid cue	OBJ	V	1	0.780	LC-HIT	 2.7028	NR	NR
298.001	1.000	Valid Miss Cue: valid cue where following object was a subsequent miss	OBJ	V	1	1.324	HC-MISS	 1.0658	UT	UT
304.001	0.500	Valid Miss Obj: object that was a subsequent miss and that followed a valid cue	OBJ	V	1	1.324	HC-MISS	 1.0658	UT	UT
306.002	1.000	Invalid HC-Hit Cue: invalid cue where following object was a subsequent high confidence hit	OBJ	NV	1	1.528	HC-HIT	 1.3534	1	0.565
308.002	0.500	Invalid HC-Hit Obj: object that was a subsequent high confidence hit and that followed an invalid cue	OBJ	NV	1	1.528	HC-HIT	 1.3534	1	0.565
310.002	1.000	Valid HC-Hit Cue: valid cue where following object was a subsequent high confidence hit	OBJ	V	1	0.698	HC-HIT	 1.0876	1	1.7208
314.002	0.500	Valid HC-Hit Obj: object that was a subsequent high confidence hit and that followed a valid cue	OBJ	V	1	0.698	HC-HIT	 1.0876	1	1.7208
316.001	1.000	Valid Other Greeble Cue: valid cue where following stimulus was an untested or no response greeble	GRE	V	1	0.749	UT	UT	UT	UT
318.001	0.500	Valid Other Greeble: stimulus that was an untested or no response greeble and that followed a valid cue	GRE	V	1	0.749	UT	UT	UT	UT
320.002	1.000	Valid Miss Cue: valid cue where following object was a subsequent miss	OBJ	V	1	1.962	LC-MISS	 1.4933	UT	UT
322.002	0.500	Valid Miss Obj: object that was a subsequent miss and that followed a valid cue	OBJ	V	1	1.962	LC-MISS	 1.4933	UT	UT
326.001	1.000	Valid Other Obj Cue: valid cue where following stimulus was an untested or no response object	OBJ	V	1	0.630	UT	UT	UT	UT
332.001	0.500	Valid Other Obj: stimulus that was an untested or no response object and that followed a valid cue	OBJ	V	1	0.630	UT	UT	UT	UT
334.001	1.000	Valid HC-Hit Cue: valid cue where following object was a subsequent high confidence hit	OBJ	V	1	1.912	HC-HIT	 1.0014	0	1.0398
338.001	0.500	Valid HC-Hit Obj: object that was a subsequent high confidence hit and that followed a valid cue	OBJ	V	1	1.912	HC-HIT	 1.0014	0	1.0398
340.002	1.000	Valid Miss Cue: valid cue where following object was a subsequent miss	OBJ	V	1	0.945	HC-MISS	 1.4098	UT	UT
344.002	0.500	Valid Miss Obj: object that was a subsequent miss and that followed a valid cue	OBJ	V	1	0.945	HC-MISS	 1.4098	UT	UT
348.001	1.000	Valid Other Greeble Cue: valid cue where following stimulus was an untested or no response greeble	GRE	V	1	0.859	UT	UT	UT	UT
350.001	0.500	Valid Other Greeble: stimulus that was an untested or no response greeble and that followed a valid cue	GRE	V	1	0.859	UT	UT	UT	UT
352.001	1.000	Invalid Miss Cue: invalid cue where following object was a subsequent miss	OBJ	NV	1	0.899	LC-MISS	 2.5541	UT	UT
358.001	0.500	Invalid Miss Obj: object that was a subsequent miss and that followed an invalid cue	OBJ	NV	1	0.899	LC-MISS	 2.5541	UT	UT
360.001	1.000	Valid Miss Cue: valid cue where following object was a subsequent miss	OBJ	V	1	0.853	LC-MISS	0.96264	UT	UT
364.001	0.500	Valid Miss Obj: object that was a subsequent miss and that followed a valid cue	OBJ	V	1	0.853	LC-MISS	0.96264	UT	UT
