onset	duration	trial_type	Object_Cond	Validity_Cond	Obj_Accuracy	Obj_Acc_RT	Subseq_Recog	Subseq_Recog_RT	Subseq_Source_Mem_Acc	Subseq_Source_Mem_Acc_RT
4.001	1.000	Valid Other Greeble Cue: valid cue where following stimulus was an untested or no response greeble	GRE	V	1	0.863	UT	UT	UT	UT
10.001	0.500	Valid Other Greeble: stimulus that was an untested or no response greeble and that followed a valid cue	GRE	V	1	0.863	UT	UT	UT	UT
12.002	1.000	Valid Miss Cue: valid cue where following object was a subsequent miss	OBJ	V	1	0.915	LC-MISS	 3.1268	UT	UT
14.002	0.500	Valid Miss Obj: object that was a subsequent miss and that followed a valid cue	OBJ	V	1	0.915	LC-MISS	 3.1268	UT	UT
16.001	1.000	Valid Miss Cue: valid cue where following object was a subsequent miss	OBJ	V	1	0.573	LC-MISS	 1.3203	UT	UT
20.001	0.500	Valid Miss Obj: object that was a subsequent miss and that followed a valid cue	OBJ	V	1	0.573	LC-MISS	 1.3203	UT	UT
22.001	1.000	Valid Other Greeble Cue: valid cue where following stimulus was an untested or no response greeble	GRE	V	1	0.660	UT	UT	UT	UT
28.001	0.500	Valid Other Greeble: stimulus that was an untested or no response greeble and that followed a valid cue	GRE	V	1	0.660	UT	UT	UT	UT
30.002	1.000	Invalid HC-Hit Cue: invalid cue where following object was a subsequent high confidence hit	OBJ	NV	1	0.893	HC-HIT	 1.7692	1	1.9327
34.002	0.500	Invalid HC-Hit Obj: object that was a subsequent high confidence hit and that followed an invalid cue	OBJ	NV	1	0.893	HC-HIT	 1.7692	1	1.9327
36.002	1.000	Valid Other Obj Cue: valid cue where following stimulus was an untested or no response object	OBJ	V	0	0.550	UT	UT	UT	UT
42.002	0.500	Valid Other Obj: stimulus that was an untested or no response object and that followed a valid cue	OBJ	V	0	0.550	UT	UT	UT	UT
46.002	1.000	Valid Miss Cue: valid cue where following object was a subsequent miss	OBJ	V	1	0.695	HC-MISS	 1.2968	UT	UT
48.002	0.500	Valid Miss Obj: object that was a subsequent miss and that followed a valid cue	OBJ	V	1	0.695	HC-MISS	 1.2968	UT	UT
50.001	1.000	Valid Miss Cue: valid cue where following object was a subsequent miss	OBJ	V	1	0.469	LC-MISS	 2.1015	UT	UT
54.001	0.500	Valid Miss Obj: object that was a subsequent miss and that followed a valid cue	OBJ	V	1	0.469	LC-MISS	 2.1015	UT	UT
56.002	1.000	Invalid HC-Hit Cue: invalid cue where following object was a subsequent high confidence hit	OBJ	NV	1	1.204	HC-HIT	 1.4823	1	1.7861
58.002	0.500	Invalid HC-Hit Obj: object that was a subsequent high confidence hit and that followed an invalid cue	OBJ	NV	1	1.204	HC-HIT	 1.4823	1	1.7861
60.001	1.000	Valid Miss Cue: valid cue where following object was a subsequent miss	OBJ	V	1	0.621	LC-MISS	 1.3458	UT	UT
66.001	0.500	Valid Miss Obj: object that was a subsequent miss and that followed a valid cue	OBJ	V	1	0.621	LC-MISS	 1.3458	UT	UT
68.001	1.000	Valid Other Greeble Cue: valid cue where following stimulus was an untested or no response greeble	GRE	V	1	0.801	UT	UT	UT	UT
70.001	0.500	Valid Other Greeble: stimulus that was an untested or no response greeble and that followed a valid cue	GRE	V	1	0.801	UT	UT	UT	UT
72.002	1.000	Valid Miss Cue: valid cue where following object was a subsequent miss	OBJ	V	1	0.610	HC-MISS	 1.1621	UT	UT
76.002	0.500	Valid Miss Obj: object that was a subsequent miss and that followed a valid cue	OBJ	V	1	0.610	HC-MISS	 1.1621	UT	UT
78.001	1.000	Valid HC-Hit Cue: valid cue where following object was a subsequent high confidence hit	OBJ	V	1	0.849	HC-HIT	 1.8527	1	1.0121
84.001	0.500	Valid HC-Hit Obj: object that was a subsequent high confidence hit and that followed a valid cue	OBJ	V	1	0.849	HC-HIT	 1.8527	1	1.0121
86.002	1.000	Valid Miss Cue: valid cue where following object was a subsequent miss	OBJ	V	1	0.731	LC-MISS	 1.2293	UT	UT
90.002	0.500	Valid Miss Obj: object that was a subsequent miss and that followed a valid cue	OBJ	V	1	0.731	LC-MISS	 1.2293	UT	UT
94.002	1.000	Valid Other Greeble Cue: valid cue where following stimulus was an untested or no response greeble	GRE	V	1	0.714	UT	UT	UT	UT
98.002	0.500	Valid Other Greeble: stimulus that was an untested or no response greeble and that followed a valid cue	GRE	V	1	0.714	UT	UT	UT	UT
100.001	1.000	Invalid Miss Cue: invalid cue where following object was a subsequent miss	OBJ	NV	1	0.839	LC-MISS	 1.1611	UT	UT
102.001	0.500	Invalid Miss Obj: object that was a subsequent miss and that followed an invalid cue	OBJ	NV	1	0.839	LC-MISS	 1.1611	UT	UT
106.001	1.000	Valid LC-Hit Cue: valid cue where following object was a subsequent low confidence hit	OBJ	V	1	0.605	LC-HIT	 1.7537	1	1.8798
110.001	0.500	Valid LC-Hit Obj: object that was a subsequent low confidence hit and that followed a valid cue	OBJ	V	1	0.605	LC-HIT	 1.7537	1	1.8798
114.001	1.000	Valid Miss Cue: valid cue where following object was a subsequent miss	OBJ	V	1	0.781	LC-MISS	 1.4358	UT	UT
118.001	0.500	Valid Miss Obj: object that was a subsequent miss and that followed a valid cue	OBJ	V	1	0.781	LC-MISS	 1.4358	UT	UT
120.001	1.000	Valid Other Obj Cue: valid cue where following stimulus was an untested or no response object	OBJ	V	1	0.850	UT	UT	UT	UT
122.001	0.500	Valid Other Obj: stimulus that was an untested or no response object and that followed a valid cue	OBJ	V	1	0.850	UT	UT	UT	UT
124.002	1.000	Valid Miss Cue: valid cue where following object was a subsequent miss	OBJ	V	1	0.669	LC-MISS	 2.1389	UT	UT
126.002	0.500	Valid Miss Obj: object that was a subsequent miss and that followed a valid cue	OBJ	V	1	0.669	LC-MISS	 2.1389	UT	UT
128.001	1.000	Valid HC-Hit Cue: valid cue where following object was a subsequent high confidence hit	OBJ	V	1	0.629	HC-HIT	 1.1297	1	1.784
134.001	0.500	Valid HC-Hit Obj: object that was a subsequent high confidence hit and that followed a valid cue	OBJ	V	1	0.629	HC-HIT	 1.1297	1	1.784
136.002	1.000	Valid Other Greeble Cue: valid cue where following stimulus was an untested or no response greeble	GRE	V	1	0.718	UT	UT	UT	UT
140.002	0.500	Valid Other Greeble: stimulus that was an untested or no response greeble and that followed a valid cue	GRE	V	1	0.718	UT	UT	UT	UT
142.001	1.000	Valid Miss Cue: valid cue where following object was a subsequent miss	OBJ	V	1	0.659	LC-MISS	 1.5375	UT	UT
144.001	0.500	Valid Miss Obj: object that was a subsequent miss and that followed a valid cue	OBJ	V	1	0.659	LC-MISS	 1.5375	UT	UT
146.001	1.000	Valid Miss Cue: valid cue where following object was a subsequent miss	OBJ	V	1	0.591	LC-MISS	 1.3683	UT	UT
148.001	0.500	Valid Miss Obj: object that was a subsequent miss and that followed a valid cue	OBJ	V	1	0.591	LC-MISS	 1.3683	UT	UT
152.002	1.000	Valid HC-Hit Cue: valid cue where following object was a subsequent high confidence hit	OBJ	V	1	0.679	HC-HIT	 1.1743	1	1.0913
154.002	0.500	Valid HC-Hit Obj: object that was a subsequent high confidence hit and that followed a valid cue	OBJ	V	1	0.679	HC-HIT	 1.1743	1	1.0913
156.001	1.000	Invalid Miss Cue: invalid cue where following object was a subsequent miss	OBJ	NV	1	0.690	LC-MISS	 1.6223	UT	UT
160.001	0.500	Invalid Miss Obj: object that was a subsequent miss and that followed an invalid cue	OBJ	NV	1	0.690	LC-MISS	 1.6223	UT	UT
164.001	1.000	Valid Miss Cue: valid cue where following object was a subsequent miss	OBJ	V	1	0.705	LC-MISS	 2.0537	UT	UT
168.001	0.500	Valid Miss Obj: object that was a subsequent miss and that followed a valid cue	OBJ	V	1	0.705	LC-MISS	 2.0537	UT	UT
170.001	1.000	Valid Miss Cue: valid cue where following object was a subsequent miss	OBJ	V	1	0.537	LC-MISS	 0.9532	UT	UT
176.001	0.500	Valid Miss Obj: object that was a subsequent miss and that followed a valid cue	OBJ	V	1	0.537	LC-MISS	 0.9532	UT	UT
178.001	1.000	Valid Other Greeble Cue: valid cue where following stimulus was an untested or no response greeble	GRE	V	1	0.785	UT	UT	UT	UT
184.001	0.500	Valid Other Greeble: stimulus that was an untested or no response greeble and that followed a valid cue	GRE	V	1	0.785	UT	UT	UT	UT
186.001	1.000	Valid Other Greeble Cue: valid cue where following stimulus was an untested or no response greeble	GRE	V	1	1.132	UT	UT	UT	UT
188.001	0.500	Valid Other Greeble: stimulus that was an untested or no response greeble and that followed a valid cue	GRE	V	1	1.132	UT	UT	UT	UT
190.001	1.000	Valid Other Greeble Cue: valid cue where following stimulus was an untested or no response greeble	GRE	V	1	0.588	UT	UT	UT	UT
196.001	0.500	Valid Other Greeble: stimulus that was an untested or no response greeble and that followed a valid cue	GRE	V	1	0.588	UT	UT	UT	UT
200.001	1.000	Invalid LC-Hit Cue: invalid cue where following object was a subsequent low confidence hit	OBJ	NV	1	0.909	LC-HIT	 2.3777	0	0.92957
202.001	0.500	Invalid LC-Hit Obj: object that was a subsequent low confidence hit and that followed an invalid cue	OBJ	NV	1	0.909	LC-HIT	 2.3777	0	0.92957
208.001	1.000	Valid Other Obj Cue: valid cue where following stimulus was an untested or no response object	OBJ	V	1	0.794	UT	UT	UT	UT
212.001	0.500	Valid Other Obj: stimulus that was an untested or no response object and that followed a valid cue	OBJ	V	1	0.794	UT	UT	UT	UT
214.001	1.000	Valid Miss Cue: valid cue where following object was a subsequent miss	OBJ	V	1	0.698	LC-MISS	 3.0591	UT	UT
220.001	0.500	Valid Miss Obj: object that was a subsequent miss and that followed a valid cue	OBJ	V	1	0.698	LC-MISS	 3.0591	UT	UT
222.001	1.000	Valid LC-Hit Cue: valid cue where following object was a subsequent low confidence hit	OBJ	V	1	0.643	LC-HIT	  1.704	1	1.247
228.001	0.500	Valid LC-Hit Obj: object that was a subsequent low confidence hit and that followed a valid cue	OBJ	V	1	0.643	LC-HIT	  1.704	1	1.247
232.001	1.000	Valid Miss Cue: valid cue where following object was a subsequent miss	OBJ	V	1	1.084	HC-MISS	  1.087	UT	UT
234.001	0.500	Valid Miss Obj: object that was a subsequent miss and that followed a valid cue	OBJ	V	1	1.084	HC-MISS	  1.087	UT	UT
236.001	1.000	Valid Other Greeble Cue: valid cue where following stimulus was an untested or no response greeble	GRE	V	1	0.877	UT	UT	UT	UT
240.001	0.500	Valid Other Greeble: stimulus that was an untested or no response greeble and that followed a valid cue	GRE	V	1	0.877	UT	UT	UT	UT
242.001	1.000	Valid Other Greeble Cue: valid cue where following stimulus was an untested or no response greeble	GRE	V	1	0.909	UT	UT	UT	UT
248.001	0.500	Valid Other Greeble: stimulus that was an untested or no response greeble and that followed a valid cue	GRE	V	1	0.909	UT	UT	UT	UT
250.001	1.000	Invalid LC-Hit Cue: invalid cue where following object was a subsequent low confidence hit	OBJ	NV	1	1.309	LC-HIT	 2.5162	0	0.93597
256.001	0.500	Invalid LC-Hit Obj: object that was a subsequent low confidence hit and that followed an invalid cue	OBJ	NV	1	1.309	LC-HIT	 2.5162	0	0.93597
260.001	1.000	Valid Other Obj Cue: valid cue where following stimulus was an untested or no response object	OBJ	V	1	0.618	UT	UT	UT	UT
266.001	0.500	Valid Other Obj: stimulus that was an untested or no response object and that followed a valid cue	OBJ	V	1	0.618	UT	UT	UT	UT
268.002	1.000	Valid Other Obj Cue: valid cue where following stimulus was an untested or no response object	OBJ	V	1	0.724	NR	NR	UT	UT
272.002	0.500	Valid Other Obj: stimulus that was an untested or no response object and that followed a valid cue	OBJ	V	1	0.724	NR	NR	UT	UT
278.001	1.000	Valid Other Greeble Cue: valid cue where following stimulus was an untested or no response greeble	GRE	V	1	0.683	UT	UT	UT	UT
280.001	0.500	Valid Other Greeble: stimulus that was an untested or no response greeble and that followed a valid cue	GRE	V	1	0.683	UT	UT	UT	UT
282.001	1.000	Invalid Miss Cue: invalid cue where following object was a subsequent miss	OBJ	NV	1	0.949	LC-MISS	 1.4954	UT	UT
286.001	0.500	Invalid Miss Obj: object that was a subsequent miss and that followed an invalid cue	OBJ	NV	1	0.949	LC-MISS	 1.4954	UT	UT
288.001	1.000	Valid Miss Cue: valid cue where following object was a subsequent miss	OBJ	V	1	0.588	LC-MISS	  1.736	UT	UT
294.001	0.500	Valid Miss Obj: object that was a subsequent miss and that followed a valid cue	OBJ	V	1	0.588	LC-MISS	  1.736	UT	UT
296.001	1.000	Valid Other Greeble Cue: valid cue where following stimulus was an untested or no response greeble	GRE	V	1	0.636	UT	UT	UT	UT
302.001	0.500	Valid Other Greeble: stimulus that was an untested or no response greeble and that followed a valid cue	GRE	V	1	0.636	UT	UT	UT	UT
304.001	1.000	Valid LC-Hit Cue: valid cue where following object was a subsequent low confidence hit	OBJ	V	1	0.825	LC-HIT	  3.696	0	1.3359
306.001	0.500	Valid LC-Hit Obj: object that was a subsequent low confidence hit and that followed a valid cue	OBJ	V	1	0.825	LC-HIT	  3.696	0	1.3359
310.002	1.000	Valid Other Greeble Cue: valid cue where following stimulus was an untested or no response greeble	GRE	V	1	0.759	UT	UT	UT	UT
314.002	0.500	Valid Other Greeble: stimulus that was an untested or no response greeble and that followed a valid cue	GRE	V	1	0.759	UT	UT	UT	UT
316.002	1.000	Invalid Miss Cue: invalid cue where following object was a subsequent miss	OBJ	NV	1	0.719	LC-MISS	 3.2659	UT	UT
322.002	0.500	Invalid Miss Obj: object that was a subsequent miss and that followed an invalid cue	OBJ	NV	1	0.719	LC-MISS	 3.2659	UT	UT
324.001	1.000	Valid LC-Hit Cue: valid cue where following object was a subsequent low confidence hit	OBJ	V	1	0.446	LC-HIT	 2.5701	0	1.3596
328.001	0.500	Valid LC-Hit Obj: object that was a subsequent low confidence hit and that followed a valid cue	OBJ	V	1	0.446	LC-HIT	 2.5701	0	1.3596
330.001	1.000	Valid Other Obj Cue: valid cue where following stimulus was an untested or no response object	OBJ	V	1	1.885	UT	UT	UT	UT
332.001	0.500	Valid Other Obj: stimulus that was an untested or no response object and that followed a valid cue	OBJ	V	1	1.885	UT	UT	UT	UT
334.001	1.000	Valid Other Greeble Cue: valid cue where following stimulus was an untested or no response greeble	GRE	V	1	0.809	UT	UT	UT	UT
336.001	0.500	Valid Other Greeble: stimulus that was an untested or no response greeble and that followed a valid cue	GRE	V	1	0.809	UT	UT	UT	UT
338.002	1.000	Valid Miss Cue: valid cue where following object was a subsequent miss	OBJ	V	1	0.650	LC-MISS	 1.8994	UT	UT
342.002	0.500	Valid Miss Obj: object that was a subsequent miss and that followed a valid cue	OBJ	V	1	0.650	LC-MISS	 1.8994	UT	UT
344.001	1.000	Invalid Other Greeble Cue: invalid cue where following stimulus was an untested or no response greeble	GRE	NV	1	0.782	UT	UT	UT	UT
346.001	0.500	Invalid Other Greeble: stimulus that was an untested or no response greeble and that followed a invalid cue	GRE	NV	1	0.782	UT	UT	UT	UT
348.002	1.000	Valid Miss Cue: valid cue where following object was a subsequent miss	OBJ	V	1	1.320	HC-MISS	 1.3575	UT	UT
352.002	0.500	Valid Miss Obj: object that was a subsequent miss and that followed a valid cue	OBJ	V	1	1.320	HC-MISS	 1.3575	UT	UT
354.001	1.000	Valid Miss Cue: valid cue where following object was a subsequent miss	OBJ	V	1	0.852	LC-MISS	 0.9514	UT	UT
356.001	0.500	Valid Miss Obj: object that was a subsequent miss and that followed a valid cue	OBJ	V	1	0.852	LC-MISS	 0.9514	UT	UT
358.001	1.000	Invalid Other Greeble Cue: invalid cue where following stimulus was an untested or no response greeble	GRE	NV	1	1.003	UT	UT	UT	UT
364.001	0.500	Invalid Other Greeble: stimulus that was an untested or no response greeble and that followed a invalid cue	GRE	NV	1	1.003	UT	UT	UT	UT
