onset	duration	trial_type	Object_Cond	Validity_Cond	Obj_Accuracy	Obj_Acc_RT	Subseq_Recog	Subseq_Recog_RT	Subseq_Source_Mem_Acc	Subseq_Source_Mem_Acc_RT
4.0043	1.0	Valid Other Obj Cue: valid cue where following stimulus was an untested or no response object	OBJ	V	1	0.77674	UT	UT	UT	UT
10.0043	0.5	Valid Other Obj: stimulus that was an untested or no response object and that followed a valid cue	OBJ	V	1	0.77674	UT	UT	UT	UT
12.0034	1.0	Valid Miss Cue: valid cue where following object was a subsequent miss	OBJ	V	1	0.8511	LC-MISS	 3.1951	UT	UT
14.0034	0.5	Valid Miss Obj: object that was a subsequent miss and that followed a valid cue	OBJ	V	1	0.8511	LC-MISS	 3.1951	UT	UT
18.002	1.0	Valid Miss Cue: valid cue where following object was a subsequent miss	OBJ	V	1	0.9360700000000001	LC-MISS	 1.3162	UT	UT
24.002	0.5	Valid Miss Obj: object that was a subsequent miss and that followed a valid cue	OBJ	V	1	0.9360700000000001	LC-MISS	 1.3162	UT	UT
26.0009	1.0	Valid Other Greeble Cue: valid cue where following stimulus was an untested or no response greeble	GRE	V	1	0.89905	UT	UT	UT	UT
30.0009	0.5	Valid Other Greeble: stimulus that was an untested or no response greeble and that followed a valid cue	GRE	V	1	0.89905	UT	UT	UT	UT
32.0021	1.0	Valid LC-Hit Cue: valid cue where following object was a subsequent low confidence hit	OBJ	V	1	0.9065799999999999	LC-HIT	 1.6795	0	1.6381
38.0021	0.5	Valid LC-Hit Obj: object that was a subsequent low confidence hit and that followed a valid cue	OBJ	V	1	0.9065799999999999	LC-HIT	 1.6795	0	1.6381
40.0009	1.0	Valid Other Obj Cue: valid cue where following stimulus was an untested or no response object	OBJ	V	1	1.0297	UT	UT	UT	UT
42.0009	0.5	Valid Other Obj: stimulus that was an untested or no response object and that followed a valid cue	OBJ	V	1	1.0297	UT	UT	UT	UT
44.0019	1.0	Valid Other Greeble Cue: valid cue where following stimulus was an untested or no response greeble	GRE	V	1	0.8232299999999999	UT	UT	UT	UT
48.0019	0.5	Valid Other Greeble: stimulus that was an untested or no response greeble and that followed a valid cue	GRE	V	1	0.8232299999999999	UT	UT	UT	UT
50.0011	1.0	Valid LC-Hit Cue: valid cue where following object was a subsequent low confidence hit	OBJ	V	1	1.6826	LC-HIT	 2.9904	0	3.6019
52.0011	0.5	Valid LC-Hit Obj: object that was a subsequent low confidence hit and that followed a valid cue	OBJ	V	1	1.6826	LC-HIT	 2.9904	0	3.6019
54.0015	1.0	Invalid LC-Hit Cue: invalid cue where following object was a subsequent low confidence hit	OBJ	NV	1	1.3015	LC-HIT	 1.1421	0	0.47011
58.0015	0.5	Invalid LC-Hit Obj: object that was a subsequent low confidence hit and that followed an invalid cue	OBJ	NV	1	1.3015	LC-HIT	 1.1421	0	0.47011
60.0017	1.0	Valid Miss Cue: valid cue where following object was a subsequent miss	OBJ	V	1	1.5289	LC-MISS	 1.1147	UT	UT
62.0017	0.5	Valid Miss Obj: object that was a subsequent miss and that followed a valid cue	OBJ	V	1	1.5289	LC-MISS	 1.1147	UT	UT
64.001	1.0	Valid Miss Cue: valid cue where following object was a subsequent miss	OBJ	V	1	0.8898	LC-MISS	 1.6429	UT	UT
68.001	0.5	Valid Miss Obj: object that was a subsequent miss and that followed a valid cue	OBJ	V	1	0.8898	LC-MISS	 1.6429	UT	UT
70.0013	1.0	Valid HC-Hit Cue: valid cue where following object was a subsequent high confidence hit	OBJ	V	1	1.1994	HC-HIT	0.81112	0	1.0881
72.0013	0.5	Valid HC-Hit Obj: object that was a subsequent high confidence hit and that followed a valid cue	OBJ	V	1	1.1994	HC-HIT	0.81112	0	1.0881
74.002	1.0	Valid Other Greeble Cue: valid cue where following stimulus was an untested or no response greeble	GRE	V	1	0.8371799999999999	UT	UT	UT	UT
80.002	0.5	Valid Other Greeble: stimulus that was an untested or no response greeble and that followed a valid cue	GRE	V	1	0.8371799999999999	UT	UT	UT	UT
82.0013	1.0	Valid HC-Hit Cue: valid cue where following object was a subsequent high confidence hit	OBJ	V	1	0.87841	HC-HIT	 1.2599	0	0.5651
88.0013	0.5	Valid HC-Hit Obj: object that was a subsequent high confidence hit and that followed a valid cue	OBJ	V	1	0.87841	HC-HIT	 1.2599	0	0.5651
90.0017	1.0	Valid Miss Cue: valid cue where following object was a subsequent miss	OBJ	V	1	0.8155100000000001	LC-MISS	 1.6248	UT	UT
94.0017	0.5	Valid Miss Obj: object that was a subsequent miss and that followed a valid cue	OBJ	V	1	0.8155100000000001	LC-MISS	 1.6248	UT	UT
98.0015	1.0	Valid Miss Cue: valid cue where following object was a subsequent miss	OBJ	V	1	0.6783100000000001	LC-MISS	 1.6258	UT	UT
102.0015	0.5	Valid Miss Obj: object that was a subsequent miss and that followed a valid cue	OBJ	V	1	0.6783100000000001	LC-MISS	 1.6258	UT	UT
104.0008	1.0	Invalid LC-Hit Cue: invalid cue where following object was a subsequent low confidence hit	OBJ	NV	1	1.3126	LC-HIT	 2.1632	0	0.32637
108.0008	0.5	Invalid LC-Hit Obj: object that was a subsequent low confidence hit and that followed an invalid cue	OBJ	NV	1	1.3126	LC-HIT	 2.1632	0	0.32637
112.0016	1.0	Valid Other Obj Cue: valid cue where following stimulus was an untested or no response object	OBJ	V	1	1.6384	UT	UT	UT	UT
118.0016	0.5	Valid Other Obj: stimulus that was an untested or no response object and that followed a valid cue	OBJ	V	1	1.6384	UT	UT	UT	UT
120.0016	1.0	Valid Other Greeble Cue: valid cue where following stimulus was an untested or no response greeble	GRE	V	1	0.87121	UT	UT	UT	UT
124.0016	0.5	Valid Other Greeble: stimulus that was an untested or no response greeble and that followed a valid cue	GRE	V	1	0.87121	UT	UT	UT	UT
126.0013	1.0	Valid HC-Hit Cue: valid cue where following object was a subsequent high confidence hit	OBJ	V	1	1.1628	HC-HIT	 1.5473	0	3.6705
128.0013	0.5	Valid HC-Hit Obj: object that was a subsequent high confidence hit and that followed a valid cue	OBJ	V	1	1.1628	HC-HIT	 1.5473	0	3.6705
130.0021	1.0	Invalid Miss Cue: invalid cue where following object was a subsequent miss	OBJ	NV	1	1.0705	LC-MISS	 3.1024	UT	UT
132.0021	0.5	Invalid Miss Obj: object that was a subsequent miss and that followed an invalid cue	OBJ	NV	1	1.0705	LC-MISS	 3.1024	UT	UT
138.0013	1.0	Valid Other Greeble Cue: valid cue where following stimulus was an untested or no response greeble	GRE	V	1	0.86593	UT	UT	UT	UT
144.0013	0.5	Valid Other Greeble: stimulus that was an untested or no response greeble and that followed a valid cue	GRE	V	1	0.86593	UT	UT	UT	UT
146.0019	1.0	Valid LC-Hit Cue: valid cue where following object was a subsequent low confidence hit	OBJ	V	1	0.78801	LC-HIT	 2.0857	0	0.81889
150.0019	0.5	Valid LC-Hit Obj: object that was a subsequent low confidence hit and that followed a valid cue	OBJ	V	1	0.78801	LC-HIT	 2.0857	0	0.81889
154.001	1.0	Valid HC-Hit Cue: valid cue where following object was a subsequent high confidence hit	OBJ	V	0	1.7902	HC-HIT	 1.5613	1	2.4611
156.001	0.5	Valid HC-Hit Obj: object that was a subsequent high confidence hit and that followed a valid cue	OBJ	V	0	1.7902	HC-HIT	 1.5613	1	2.4611
158.0008	1.0	Valid LC-Hit Cue: valid cue where following object was a subsequent low confidence hit	OBJ	V	1	0.6953	LC-HIT	0.94549	1	0.91551
162.0008	0.5	Valid LC-Hit Obj: object that was a subsequent low confidence hit and that followed a valid cue	OBJ	V	1	0.6953	LC-HIT	0.94549	1	0.91551
164.0017	1.0	Valid Other Greeble Cue: valid cue where following stimulus was an untested or no response greeble	GRE	V	1	0.81586	UT	UT	UT	UT
170.0017	0.5	Valid Other Greeble: stimulus that was an untested or no response greeble and that followed a valid cue	GRE	V	1	0.81586	UT	UT	UT	UT
174.0013	1.0	Valid HC-Hit Cue: valid cue where following object was a subsequent high confidence hit	OBJ	V	1	0.84846	HC-HIT	 0.9954	1	0.56191
176.0013	0.5	Valid HC-Hit Obj: object that was a subsequent high confidence hit and that followed a valid cue	OBJ	V	1	0.84846	HC-HIT	 0.9954	1	0.56191
180.0017	1.0	Valid Other Greeble Cue: valid cue where following stimulus was an untested or no response greeble	GRE	V	1	0.9370700000000001	UT	UT	UT	UT
184.0017	0.5	Valid Other Greeble: stimulus that was an untested or no response greeble and that followed a valid cue	GRE	V	1	0.9370700000000001	UT	UT	UT	UT
186.0019	1.0	Valid Miss Cue: valid cue where following object was a subsequent miss	OBJ	V	1	0.64003	HC-MISS	 2.4026	UT	UT
192.0019	0.5	Valid Miss Obj: object that was a subsequent miss and that followed a valid cue	OBJ	V	1	0.64003	HC-MISS	 2.4026	UT	UT
194.0018	1.0	Invalid Miss Cue: invalid cue where following object was a subsequent miss	OBJ	NV	1	1.196	LC-MISS	 1.3358	UT	UT
196.0018	0.5	Invalid Miss Obj: object that was a subsequent miss and that followed an invalid cue	OBJ	NV	1	1.196	LC-MISS	 1.3358	UT	UT
200.00099999999998	1.0	Valid HC-Hit Cue: valid cue where following object was a subsequent high confidence hit	OBJ	V	1	1.0599	HC-HIT	 1.5747	0	0.63461
204.00099999999998	0.5	Valid HC-Hit Obj: object that was a subsequent high confidence hit and that followed a valid cue	OBJ	V	1	1.0599	HC-HIT	 1.5747	0	0.63461
206.0014	1.0	Valid Other Obj Cue: valid cue where following stimulus was an untested or no response object	OBJ	V	1	0.7469899999999999	UT	UT	UT	UT
212.0014	0.5	Valid Other Obj: stimulus that was an untested or no response object and that followed a valid cue	OBJ	V	1	0.7469899999999999	UT	UT	UT	UT
214.0019	1.0	Valid Other Greeble Cue: valid cue where following stimulus was an untested or no response greeble	GRE	V	1	0.9301200000000001	UT	UT	UT	UT
220.0019	0.5	Valid Other Greeble: stimulus that was an untested or no response greeble and that followed a valid cue	GRE	V	1	0.9301200000000001	UT	UT	UT	UT
224.0013	1.0	Valid Miss Cue: valid cue where following object was a subsequent miss	OBJ	V	1	0.8672700000000001	LC-MISS	 1.5886	UT	UT
228.0013	0.5	Valid Miss Obj: object that was a subsequent miss and that followed a valid cue	OBJ	V	1	0.8672700000000001	LC-MISS	 1.5886	UT	UT
234.0018	1.0	Invalid HC-Hit Cue: invalid cue where following object was a subsequent high confidence hit	OBJ	NV	1	0.81409	HC-HIT	 1.7237	1	0.63278
240.0018	0.5	Invalid HC-Hit Obj: object that was a subsequent high confidence hit and that followed an invalid cue	OBJ	NV	1	0.81409	HC-HIT	 1.7237	1	0.63278
242.0017	1.0	Valid Miss Cue: valid cue where following object was a subsequent miss	OBJ	V	1	1.2073	LC-MISS	 1.4805	UT	UT
246.0017	0.5	Valid Miss Obj: object that was a subsequent miss and that followed a valid cue	OBJ	V	1	1.2073	LC-MISS	 1.4805	UT	UT
248.0016	1.0	Valid Miss Cue: valid cue where following object was a subsequent miss	OBJ	V	1	1.321	LC-MISS	 2.5453	UT	UT
252.0016	0.5	Valid Miss Obj: object that was a subsequent miss and that followed a valid cue	OBJ	V	1	1.321	LC-MISS	 2.5453	UT	UT
254.0007	1.0	Valid Other Greeble Cue: valid cue where following stimulus was an untested or no response greeble	GRE	V	1	1.3579	UT	UT	UT	UT
256.0007	0.5	Valid Other Greeble: stimulus that was an untested or no response greeble and that followed a valid cue	GRE	V	1	1.3579	UT	UT	UT	UT
258.001	1.0	Invalid LC-Hit Cue: invalid cue where following object was a subsequent low confidence hit	OBJ	NV	1	0.8649100000000001	LC-HIT	 2.8505	0	0.8537
260.001	0.5	Invalid LC-Hit Obj: object that was a subsequent low confidence hit and that followed an invalid cue	OBJ	NV	1	0.8649100000000001	LC-HIT	 2.8505	0	0.8537
262.0011	1.0	Valid Other Greeble Cue: valid cue where following stimulus was an untested or no response greeble	GRE	V	1	0.89689	UT	UT	UT	UT
268.0011	0.5	Valid Other Greeble: stimulus that was an untested or no response greeble and that followed a valid cue	GRE	V	1	0.89689	UT	UT	UT	UT
270.0011	1.0	Valid HC-Hit Cue: valid cue where following object was a subsequent high confidence hit	OBJ	V	1	0.78377	HC-HIT	 1.8406	1	0.79224
276.0011	0.5	Valid HC-Hit Obj: object that was a subsequent high confidence hit and that followed a valid cue	OBJ	V	1	0.78377	HC-HIT	 1.8406	1	0.79224
280.0015	1.0	Valid HC-Hit Cue: valid cue where following object was a subsequent high confidence hit	OBJ	V	1	1.4772	HC-HIT	  1.609	1	1.8181
286.0015	0.5	Valid HC-Hit Obj: object that was a subsequent high confidence hit and that followed a valid cue	OBJ	V	1	1.4772	HC-HIT	  1.609	1	1.8181
288.0012	1.0	Valid Other Obj Cue: valid cue where following stimulus was an untested or no response object	OBJ	V	1	1.0409	UT	UT	UT	UT
290.0012	0.5	Valid Other Obj: stimulus that was an untested or no response object and that followed a valid cue	OBJ	V	1	1.0409	UT	UT	UT	UT
292.0012	1.0	Valid Miss Cue: valid cue where following object was a subsequent miss	OBJ	V	1	0.65833	LC-MISS	 1.5404	UT	UT
296.0012	0.5	Valid Miss Obj: object that was a subsequent miss and that followed a valid cue	OBJ	V	1	0.65833	LC-MISS	 1.5404	UT	UT
298.0016	1.0	Invalid LC-Hit Cue: invalid cue where following object was a subsequent low confidence hit	OBJ	NV	1	0.7786	LC-HIT	 1.7111	0	1.077
304.0016	0.5	Invalid LC-Hit Obj: object that was a subsequent low confidence hit and that followed an invalid cue	OBJ	NV	1	0.7786	LC-HIT	 1.7111	0	1.077
308.0017	1.0	Valid Other Greeble Cue: valid cue where following stimulus was an untested or no response greeble	GRE	V	1	1.0521	UT	UT	UT	UT
310.0017	0.5	Valid Other Greeble: stimulus that was an untested or no response greeble and that followed a valid cue	GRE	V	1	1.0521	UT	UT	UT	UT
312.0011	1.0	Invalid Miss Cue: invalid cue where following object was a subsequent miss	OBJ	NV	1	0.98267	HC-MISS	 1.8742	UT	UT
316.0011	0.5	Invalid Miss Obj: object that was a subsequent miss and that followed an invalid cue	OBJ	NV	1	0.98267	HC-MISS	 1.8742	UT	UT
318.0009	1.0	Valid Other Greeble Cue: valid cue where following stimulus was an untested or no response greeble	GRE	V	1	1.0736	UT	UT	UT	UT
320.0009	0.5	Valid Other Greeble: stimulus that was an untested or no response greeble and that followed a valid cue	GRE	V	1	1.0736	UT	UT	UT	UT
322.0008	1.0	Valid LC-Hit Cue: valid cue where following object was a subsequent low confidence hit	OBJ	V	1	0.8532200000000001	LC-HIT	 1.8093	0	2.2987
324.0008	0.5	Valid LC-Hit Obj: object that was a subsequent low confidence hit and that followed a valid cue	OBJ	V	1	0.8532200000000001	LC-HIT	 1.8093	0	2.2987
326.0012	1.0	Valid LC-Hit Cue: valid cue where following object was a subsequent low confidence hit	OBJ	V	1	0.70204	LC-HIT	 2.4302	0	1.0661
332.0012	0.5	Valid LC-Hit Obj: object that was a subsequent low confidence hit and that followed a valid cue	OBJ	V	1	0.70204	LC-HIT	 2.4302	0	1.0661
334.0011	1.0	Valid Other Greeble Cue: valid cue where following stimulus was an untested or no response greeble	GRE	V	1	0.93285	UT	UT	UT	UT
340.0011	0.5	Valid Other Greeble: stimulus that was an untested or no response greeble and that followed a valid cue	GRE	V	1	0.93285	UT	UT	UT	UT
342.0008	1.0	Valid Miss Cue: valid cue where following object was a subsequent miss	OBJ	V	1	0.76043	LC-MISS	 2.1876	UT	UT
344.0008	0.5	Valid Miss Obj: object that was a subsequent miss and that followed a valid cue	OBJ	V	1	0.76043	LC-MISS	 2.1876	UT	UT
346.0009	1.0	Invalid Other Greeble Cue: invalid cue where following stimulus was an untested or no response greeble	GRE	NV	1	1.0049	UT	UT	UT	UT
348.0009	0.5	Invalid Other Greeble: stimulus that was an untested or no response greeble and that followed a invalid cue	GRE	NV	1	1.0049	UT	UT	UT	UT
350.0019	1.0	Valid Miss Cue: valid cue where following object was a subsequent miss	OBJ	V	1	0.70125	HC-MISS	 1.3401	UT	UT
354.0019	0.5	Valid Miss Obj: object that was a subsequent miss and that followed a valid cue	OBJ	V	1	0.70125	HC-MISS	 1.3401	UT	UT
356.0022	1.0	Valid Other Greeble Cue: valid cue where following stimulus was an untested or no response greeble	GRE	V	1	0.71397	UT	UT	UT	UT
358.0022	0.5	Valid Other Greeble: stimulus that was an untested or no response greeble and that followed a valid cue	GRE	V	1	0.71397	UT	UT	UT	UT
360.0016	1.0	Invalid Other Greeble Cue: invalid cue where following stimulus was an untested or no response greeble	GRE	NV	1	0.81219	UT	UT	UT	UT
364.0016	0.5	Invalid Other Greeble: stimulus that was an untested or no response greeble and that followed a invalid cue	GRE	NV	1	0.81219	UT	UT	UT	UT
