onset	duration	trial_type	Object_Cond	Validity_Cond	Obj_Accuracy	Obj_Acc_RT	Subseq_Recog	Subseq_Recog_RT	Subseq_Source_Mem_Acc	Subseq_Source_Mem_Acc_RT
4.001	1.000	Valid Other Obj Cue: valid cue where following stimulus was an untested or no response object	OBJ	V	1	0.853	UT	UT	UT	UT
6.001	0.500	Valid Other Obj: stimulus that was an untested or no response object and that followed a valid cue	OBJ	V	1	0.853	UT	UT	UT	UT
8.002	1.000	Valid HC-Hit Cue: valid cue where following object was a subsequent high confidence hit	OBJ	V	1	0.665	HC-HIT	 1.3919	1	0.77129
10.002	0.500	Valid HC-Hit Obj: object that was a subsequent high confidence hit and that followed a valid cue	OBJ	V	1	0.665	HC-HIT	 1.3919	1	0.77129
12.001	1.000	Valid Other Greeble Cue: valid cue where following stimulus was an untested or no response greeble	GRE	V	1	0.829	UT	UT	UT	UT
14.001	0.500	Valid Other Greeble: stimulus that was an untested or no response greeble and that followed a valid cue	GRE	V	1	0.829	UT	UT	UT	UT
16.001	1.000	Invalid Miss Cue: invalid cue where following object was a subsequent miss	OBJ	NV	1	1.175	LC-MISS	 1.1341	UT	UT
20.001	0.500	Invalid Miss Obj: object that was a subsequent miss and that followed an invalid cue	OBJ	NV	1	1.175	LC-MISS	 1.1341	UT	UT
22.002	1.000	Valid HC-Hit Cue: valid cue where following object was a subsequent high confidence hit	OBJ	V	1	0.722	HC-HIT	 1.1824	1	0.67739
24.002	0.500	Valid HC-Hit Obj: object that was a subsequent high confidence hit and that followed a valid cue	OBJ	V	1	0.722	HC-HIT	 1.1824	1	0.67739
26.001	1.000	Valid LC-Hit Cue: valid cue where following object was a subsequent low confidence hit	OBJ	V	1	0.668	LC-HIT	 1.1548	0	0.59266
30.001	0.500	Valid LC-Hit Obj: object that was a subsequent low confidence hit and that followed a valid cue	OBJ	V	1	0.668	LC-HIT	 1.1548	0	0.59266
32.002	1.000	Valid Other Greeble Cue: valid cue where following stimulus was an untested or no response greeble	GRE	V	1	0.742	UT	UT	UT	UT
36.002	0.500	Valid Other Greeble: stimulus that was an untested or no response greeble and that followed a valid cue	GRE	V	1	0.742	UT	UT	UT	UT
38.001	1.000	Valid Other Obj Cue: valid cue where following stimulus was an untested or no response object	OBJ	V	1	0.808	UT	UT	UT	UT
42.001	0.500	Valid Other Obj: stimulus that was an untested or no response object and that followed a valid cue	OBJ	V	1	0.808	UT	UT	UT	UT
44.002	1.000	Valid Miss Cue: valid cue where following object was a subsequent miss	OBJ	V	1	0.660	LC-MISS	 3.1652	UT	UT
46.002	0.500	Valid Miss Obj: object that was a subsequent miss and that followed a valid cue	OBJ	V	1	0.660	LC-MISS	 3.1652	UT	UT
50.001	1.000	Valid Miss Cue: valid cue where following object was a subsequent miss	OBJ	V	1	0.705	LC-MISS	 1.1055	UT	UT
56.001	0.500	Valid Miss Obj: object that was a subsequent miss and that followed a valid cue	OBJ	V	1	0.705	LC-MISS	 1.1055	UT	UT
58.001	1.000	Valid Other Greeble Cue: valid cue where following stimulus was an untested or no response greeble	GRE	V	1	0.666	UT	UT	UT	UT
62.001	0.500	Valid Other Greeble: stimulus that was an untested or no response greeble and that followed a valid cue	GRE	V	1	0.666	UT	UT	UT	UT
64.001	1.000	Invalid Miss Cue: invalid cue where following object was a subsequent miss	OBJ	NV	1	0.676	LC-MISS	 1.6529	UT	UT
68.001	0.500	Invalid Miss Obj: object that was a subsequent miss and that followed an invalid cue	OBJ	NV	1	0.676	LC-MISS	 1.6529	UT	UT
70.001	1.000	Valid Miss Cue: valid cue where following object was a subsequent miss	OBJ	V	1	1.126	LC-MISS	 2.5307	UT	UT
74.001	0.500	Valid Miss Obj: object that was a subsequent miss and that followed a valid cue	OBJ	V	1	1.126	LC-MISS	 2.5307	UT	UT
76.001	1.000	Valid Other Greeble Cue: valid cue where following stimulus was an untested or no response greeble	GRE	V	1	0.894	UT	UT	UT	UT
82.001	0.500	Valid Other Greeble: stimulus that was an untested or no response greeble and that followed a valid cue	GRE	V	1	0.894	UT	UT	UT	UT
84.002	1.000	Valid HC-Hit Cue: valid cue where following object was a subsequent high confidence hit	OBJ	V	1	0.823	HC-HIT	0.95294	1	0.96731
88.002	0.500	Valid HC-Hit Obj: object that was a subsequent high confidence hit and that followed a valid cue	OBJ	V	1	0.823	HC-HIT	0.95294	1	0.96731
90.002	1.000	Valid Other Obj Cue: valid cue where following stimulus was an untested or no response object	OBJ	V	1	0.623	UT	UT	UT	UT
96.002	0.500	Valid Other Obj: stimulus that was an untested or no response object and that followed a valid cue	OBJ	V	1	0.623	UT	UT	UT	UT
100.001	1.000	Valid Other Greeble Cue: valid cue where following stimulus was an untested or no response greeble	GRE	V	1	1.029	UT	UT	UT	UT
106.001	0.500	Valid Other Greeble: stimulus that was an untested or no response greeble and that followed a valid cue	GRE	V	1	1.029	UT	UT	UT	UT
108.001	1.000	Valid LC-Hit Cue: valid cue where following object was a subsequent low confidence hit	OBJ	V	1	0.759	LC-HIT	 2.3104	1	0.54496
110.001	0.500	Valid LC-Hit Obj: object that was a subsequent low confidence hit and that followed a valid cue	OBJ	V	1	0.759	LC-HIT	 2.3104	1	0.54496
112.001	1.000	Valid Miss Cue: valid cue where following object was a subsequent miss	OBJ	V	1	0.896	LC-MISS	 1.2611	UT	UT
118.001	0.500	Valid Miss Obj: object that was a subsequent miss and that followed a valid cue	OBJ	V	1	0.896	LC-MISS	 1.2611	UT	UT
120.002	1.000	Valid Miss Cue: valid cue where following object was a subsequent miss	OBJ	V	1	0.873	LC-MISS	 1.0056	UT	UT
124.002	0.500	Valid Miss Obj: object that was a subsequent miss and that followed a valid cue	OBJ	V	1	0.873	LC-MISS	 1.0056	UT	UT
126.001	1.000	Invalid Miss Cue: invalid cue where following object was a subsequent miss	OBJ	NV	1	1.233	LC-MISS	 1.0687	UT	UT
132.001	0.500	Invalid Miss Obj: object that was a subsequent miss and that followed an invalid cue	OBJ	NV	1	1.233	LC-MISS	 1.0687	UT	UT
136.002	1.000	Valid LC-Hit Cue: valid cue where following object was a subsequent low confidence hit	OBJ	V	1	1.150	LC-HIT	 2.2793	1	1.1145
142.002	0.500	Valid LC-Hit Obj: object that was a subsequent low confidence hit and that followed a valid cue	OBJ	V	1	1.150	LC-HIT	 2.2793	1	1.1145
144.001	1.000	Invalid Miss Cue: invalid cue where following object was a subsequent miss	OBJ	NV	1	1.118	LC-MISS	 1.6866	UT	UT
150.001	0.500	Invalid Miss Obj: object that was a subsequent miss and that followed an invalid cue	OBJ	NV	1	1.118	LC-MISS	 1.6866	UT	UT
152.001	1.000	Valid Miss Cue: valid cue where following object was a subsequent miss	OBJ	V	1	0.687	LC-MISS	 1.3088	UT	UT
156.001	0.500	Valid Miss Obj: object that was a subsequent miss and that followed a valid cue	OBJ	V	1	0.687	LC-MISS	 1.3088	UT	UT
160.001	1.000	Valid Other Greeble Cue: valid cue where following stimulus was an untested or no response greeble	GRE	V	1	1.053	UT	UT	UT	UT
166.001	0.500	Valid Other Greeble: stimulus that was an untested or no response greeble and that followed a valid cue	GRE	V	1	1.053	UT	UT	UT	UT
168.001	1.000	Invalid Other Greeble Cue: invalid cue where following stimulus was an untested or no response greeble	GRE	NV	1	0.772	UT	UT	UT	UT
174.001	0.500	Invalid Other Greeble: stimulus that was an untested or no response greeble and that followed a invalid cue	GRE	NV	1	0.772	UT	UT	UT	UT
176.001	1.000	Valid Miss Cue: valid cue where following object was a subsequent miss	OBJ	V	1	1.177	LC-MISS	 1.1452	UT	UT
178.001	0.500	Valid Miss Obj: object that was a subsequent miss and that followed a valid cue	OBJ	V	1	1.177	LC-MISS	 1.1452	UT	UT
180.001	1.000	Valid HC-Hit Cue: valid cue where following object was a subsequent high confidence hit	OBJ	V	1	0.666	HC-HIT	 1.3694	1	0.4279
184.001	0.500	Valid HC-Hit Obj: object that was a subsequent high confidence hit and that followed a valid cue	OBJ	V	1	0.666	HC-HIT	 1.3694	1	0.4279
186.001	1.000	Invalid HC-Hit Cue: invalid cue where following object was a subsequent high confidence hit	OBJ	NV	1	0.990	HC-HIT	 1.4385	0	0.56113
188.001	0.500	Invalid HC-Hit Obj: object that was a subsequent high confidence hit and that followed an invalid cue	OBJ	NV	1	0.990	HC-HIT	 1.4385	0	0.56113
190.002	1.000	Valid Miss Cue: valid cue where following object was a subsequent miss	OBJ	V	1	0.760	LC-MISS	 1.9259	UT	UT
194.002	0.500	Valid Miss Obj: object that was a subsequent miss and that followed a valid cue	OBJ	V	1	0.760	LC-MISS	 1.9259	UT	UT
196.001	1.000	Valid Other Greeble Cue: valid cue where following stimulus was an untested or no response greeble	GRE	V	1	0.940	UT	UT	UT	UT
198.001	0.500	Valid Other Greeble: stimulus that was an untested or no response greeble and that followed a valid cue	GRE	V	1	0.940	UT	UT	UT	UT
200.001	1.000	Valid Other Obj Cue: valid cue where following stimulus was an untested or no response object	OBJ	V	1	0.651	UT	UT	UT	UT
206.001	0.500	Valid Other Obj: stimulus that was an untested or no response object and that followed a valid cue	OBJ	V	1	0.651	UT	UT	UT	UT
208.002	1.000	Valid Other Greeble Cue: valid cue where following stimulus was an untested or no response greeble	GRE	V	1	0.703	UT	UT	UT	UT
210.002	0.500	Valid Other Greeble: stimulus that was an untested or no response greeble and that followed a valid cue	GRE	V	1	0.703	UT	UT	UT	UT
212.001	1.000	Invalid Miss Cue: invalid cue where following object was a subsequent miss	OBJ	NV	1	0.808	LC-MISS	 1.9567	UT	UT
216.001	0.500	Invalid Miss Obj: object that was a subsequent miss and that followed an invalid cue	OBJ	NV	1	0.808	LC-MISS	 1.9567	UT	UT
220.001	1.000	Valid HC-Hit Cue: valid cue where following object was a subsequent high confidence hit	OBJ	V	1	0.902	HC-HIT	0.99957	1	0.62982
226.001	0.500	Valid HC-Hit Obj: object that was a subsequent high confidence hit and that followed a valid cue	OBJ	V	1	0.902	HC-HIT	0.99957	1	0.62982
230.002	1.000	Valid Miss Cue: valid cue where following object was a subsequent miss	OBJ	V	1	0.670	LC-MISS	 1.6673	UT	UT
234.002	0.500	Valid Miss Obj: object that was a subsequent miss and that followed a valid cue	OBJ	V	1	0.670	LC-MISS	 1.6673	UT	UT
240.001	1.000	Invalid Miss Cue: invalid cue where following object was a subsequent miss	OBJ	NV	1	0.702	LC-MISS	 1.1434	UT	UT
242.001	0.500	Invalid Miss Obj: object that was a subsequent miss and that followed an invalid cue	OBJ	NV	1	0.702	LC-MISS	 1.1434	UT	UT
246.002	1.000	Valid Other Greeble Cue: valid cue where following stimulus was an untested or no response greeble	GRE	V	1	0.939	UT	UT	UT	UT
252.002	0.500	Valid Other Greeble: stimulus that was an untested or no response greeble and that followed a valid cue	GRE	V	1	0.939	UT	UT	UT	UT
256.001	1.000	Valid Miss Cue: valid cue where following object was a subsequent miss	OBJ	V	1	0.681	LC-MISS	 2.5221	UT	UT
262.001	0.500	Valid Miss Obj: object that was a subsequent miss and that followed a valid cue	OBJ	V	1	0.681	LC-MISS	 2.5221	UT	UT
264.002	1.000	Valid Other Greeble Cue: valid cue where following stimulus was an untested or no response greeble	GRE	V	1	1.028	UT	UT	UT	UT
266.002	0.500	Valid Other Greeble: stimulus that was an untested or no response greeble and that followed a valid cue	GRE	V	1	1.028	UT	UT	UT	UT
268.001	1.000	Invalid Miss Cue: invalid cue where following object was a subsequent miss	OBJ	NV	1	0.769	LC-MISS	 2.8781	UT	UT
270.001	0.500	Invalid Miss Obj: object that was a subsequent miss and that followed an invalid cue	OBJ	NV	1	0.769	LC-MISS	 2.8781	UT	UT
276.002	1.000	Valid Miss Cue: valid cue where following object was a subsequent miss	OBJ	V	1	0.656	HC-MISS	 1.7869	UT	UT
278.002	0.500	Valid Miss Obj: object that was a subsequent miss and that followed a valid cue	OBJ	V	1	0.656	HC-MISS	 1.7869	UT	UT
280.001	1.000	Valid Other Greeble Cue: valid cue where following stimulus was an untested or no response greeble	GRE	V	1	0.707	UT	UT	UT	UT
282.001	0.500	Valid Other Greeble: stimulus that was an untested or no response greeble and that followed a valid cue	GRE	V	1	0.707	UT	UT	UT	UT
284.001	1.000	Valid Miss Cue: valid cue where following object was a subsequent miss	OBJ	V	1	0.661	LC-MISS	 0.9581	UT	UT
288.001	0.500	Valid Miss Obj: object that was a subsequent miss and that followed a valid cue	OBJ	V	1	0.661	LC-MISS	 0.9581	UT	UT
290.001	1.000	Valid LC-Hit Cue: valid cue where following object was a subsequent low confidence hit	OBJ	V	1	0.645	LC-HIT	 1.3078	1	0.98642
296.001	0.500	Valid LC-Hit Obj: object that was a subsequent low confidence hit and that followed a valid cue	OBJ	V	1	0.645	LC-HIT	 1.3078	1	0.98642
298.001	1.000	Valid Other Greeble Cue: valid cue where following stimulus was an untested or no response greeble	GRE	V	1	0.749	UT	UT	UT	UT
304.001	0.500	Valid Other Greeble: stimulus that was an untested or no response greeble and that followed a valid cue	GRE	V	1	0.749	UT	UT	UT	UT
306.001	1.000	Valid Other Greeble Cue: valid cue where following stimulus was an untested or no response greeble	GRE	V	1	0.600	UT	UT	UT	UT
308.001	0.500	Valid Other Greeble: stimulus that was an untested or no response greeble and that followed a valid cue	GRE	V	1	0.600	UT	UT	UT	UT
310.001	1.000	Valid HC-Hit Cue: valid cue where following object was a subsequent high confidence hit	OBJ	V	1	0.736	HC-HIT	 1.0473	1	1.0663
316.001	0.500	Valid HC-Hit Obj: object that was a subsequent high confidence hit and that followed a valid cue	OBJ	V	1	0.736	HC-HIT	 1.0473	1	1.0663
318.001	1.000	Valid Other Obj Cue: valid cue where following stimulus was an untested or no response object	OBJ	V	1	0.737	UT	UT	UT	UT
322.001	0.500	Valid Other Obj: stimulus that was an untested or no response object and that followed a valid cue	OBJ	V	1	0.737	UT	UT	UT	UT
324.001	1.000	Invalid Other Greeble Cue: invalid cue where following stimulus was an untested or no response greeble	GRE	NV	0	0.802	UT	UT	UT	UT
330.001	0.500	Invalid Other Greeble: stimulus that was an untested or no response greeble and that followed a invalid cue	GRE	NV	0	0.802	UT	UT	UT	UT
332.002	1.000	Valid Miss Cue: valid cue where following object was a subsequent miss	OBJ	V	1	0.701	LC-MISS	 1.6714	UT	UT
334.002	0.500	Valid Miss Obj: object that was a subsequent miss and that followed a valid cue	OBJ	V	1	0.701	LC-MISS	 1.6714	UT	UT
336.001	1.000	Valid Other Greeble Cue: valid cue where following stimulus was an untested or no response greeble	GRE	V	1	0.807	UT	UT	UT	UT
340.001	0.500	Valid Other Greeble: stimulus that was an untested or no response greeble and that followed a valid cue	GRE	V	1	0.807	UT	UT	UT	UT
342.001	1.000	Valid Miss Cue: valid cue where following object was a subsequent miss	OBJ	V	1	0.704	LC-MISS	 1.9189	UT	UT
346.001	0.500	Valid Miss Obj: object that was a subsequent miss and that followed a valid cue	OBJ	V	1	0.704	LC-MISS	 1.9189	UT	UT
350.001	1.000	Valid HC-Hit Cue: valid cue where following object was a subsequent high confidence hit	OBJ	V	1	0.728	HC-HIT	 1.4515	1	1.9958
354.001	0.500	Valid HC-Hit Obj: object that was a subsequent high confidence hit and that followed a valid cue	OBJ	V	1	0.728	HC-HIT	 1.4515	1	1.9958
356.001	1.000	Valid HC-Hit Cue: valid cue where following object was a subsequent high confidence hit	OBJ	V	1	0.603	HC-HIT	0.90442	1	0.68754
358.001	0.500	Valid HC-Hit Obj: object that was a subsequent high confidence hit and that followed a valid cue	OBJ	V	1	0.603	HC-HIT	0.90442	1	0.68754
360.002	1.000	Valid LC-Hit Cue: valid cue where following object was a subsequent low confidence hit	OBJ	V	1	0.695	LC-HIT	 1.3366	0	0.7489
362.002	0.500	Valid LC-Hit Obj: object that was a subsequent low confidence hit and that followed a valid cue	OBJ	V	1	0.695	LC-HIT	 1.3366	0	0.7489
