onset	duration	trial_type	Object_Cond	Validity_Cond	Obj_Accuracy	Obj_Acc_RT	Subseq_Recog	Subseq_Recog_RT	Subseq_Source_Mem_Acc	Subseq_Source_Mem_Acc_RT
4.0009	1.0	Valid Other Obj Cue: valid cue where following stimulus was an untested or no response object	OBJ	V	1	1.2344	UT	UT	UT	UT
6.0009	0.5	Valid Other Obj: stimulus that was an untested or no response object and that followed a valid cue	OBJ	V	1	1.2344	UT	UT	UT	UT
8.0019	1.0	Invalid LC-Hit Cue: invalid cue where following object was a subsequent low confidence hit	OBJ	NV	1	0.90743	LC-HIT	 2.1061	1	1.3034
14.0019	0.5	Invalid LC-Hit Obj: object that was a subsequent low confidence hit and that followed an invalid cue	OBJ	NV	1	0.90743	LC-HIT	 2.1061	1	1.3034
16.0014	1.0	Valid Miss Cue: valid cue where following object was a subsequent miss	OBJ	V	1	0.62798	LC-MISS	0.75721	UT	UT
20.0014	0.5	Valid Miss Obj: object that was a subsequent miss and that followed a valid cue	OBJ	V	1	0.62798	LC-MISS	0.75721	UT	UT
22.000999999999998	1.0	Valid Other Greeble Cue: valid cue where following stimulus was an untested or no response greeble	GRE	V	1	0.8729299999999999	UT	UT	UT	UT
24.000999999999998	0.5	Valid Other Greeble: stimulus that was an untested or no response greeble and that followed a valid cue	GRE	V	1	0.8729299999999999	UT	UT	UT	UT
26.0016	1.0	Valid Other Obj Cue: valid cue where following stimulus was an untested or no response object	OBJ	V	1	0.78666	UT	UT	UT	UT
30.0016	0.5	Valid Other Obj: stimulus that was an untested or no response object and that followed a valid cue	OBJ	V	1	0.78666	UT	UT	UT	UT
32.001	1.0	Valid Miss Cue: valid cue where following object was a subsequent miss	OBJ	V	1	1.0841	LC-MISS	0.97436	UT	UT
36.001	0.5	Valid Miss Obj: object that was a subsequent miss and that followed a valid cue	OBJ	V	1	1.0841	LC-MISS	0.97436	UT	UT
40.0013	1.0	Invalid HC-Hit Cue: invalid cue where following object was a subsequent high confidence hit	OBJ	NV	1	1.1012	HC-HIT	 1.0682	1	1.5643
42.0013	0.5	Invalid HC-Hit Obj: object that was a subsequent high confidence hit and that followed an invalid cue	OBJ	NV	1	1.1012	HC-HIT	 1.0682	1	1.5643
44.001000000000005	1.0	Valid Other Obj Cue: valid cue where following stimulus was an untested or no response object	OBJ	V	1	0.9194399999999999	UT	UT	UT	UT
48.001000000000005	0.5	Valid Other Obj: stimulus that was an untested or no response object and that followed a valid cue	OBJ	V	1	0.9194399999999999	UT	UT	UT	UT
50.0012	1.0	Valid Other Greeble Cue: valid cue where following stimulus was an untested or no response greeble	GRE	V	1	0.61852	UT	UT	UT	UT
52.0012	0.5	Valid Other Greeble: stimulus that was an untested or no response greeble and that followed a valid cue	GRE	V	1	0.61852	UT	UT	UT	UT
54.001000000000005	1.0	Valid Other Greeble Cue: valid cue where following stimulus was an untested or no response greeble	GRE	V	1	0.85101	UT	UT	UT	UT
60.001000000000005	0.5	Valid Other Greeble: stimulus that was an untested or no response greeble and that followed a valid cue	GRE	V	1	0.85101	UT	UT	UT	UT
62.001000000000005	1.0	Valid LC-Hit Cue: valid cue where following object was a subsequent low confidence hit	OBJ	V	1	0.7639	LC-HIT	 1.9795	0	2.4636
66.001	0.5	Valid LC-Hit Obj: object that was a subsequent low confidence hit and that followed a valid cue	OBJ	V	1	0.7639	LC-HIT	 1.9795	0	2.4636
68.0008	1.0	Invalid Miss Cue: invalid cue where following object was a subsequent miss	OBJ	NV	1	0.97504	LC-MISS	  1.212	UT	UT
72.0008	0.5	Invalid Miss Obj: object that was a subsequent miss and that followed an invalid cue	OBJ	NV	1	0.97504	LC-MISS	  1.212	UT	UT
74.0013	1.0	Valid Other Greeble Cue: valid cue where following stimulus was an untested or no response greeble	GRE	V	1	0.80206	UT	UT	UT	UT
76.0013	0.5	Valid Other Greeble: stimulus that was an untested or no response greeble and that followed a valid cue	GRE	V	1	0.80206	UT	UT	UT	UT
78.0015	1.0	Valid HC-Hit Cue: valid cue where following object was a subsequent high confidence hit	OBJ	V	1	1.4984	HC-HIT	 1.5224	1	1.8093
84.0015	0.5	Valid HC-Hit Obj: object that was a subsequent high confidence hit and that followed a valid cue	OBJ	V	1	1.4984	HC-HIT	 1.5224	1	1.8093
86.0007	1.0	Valid Other Greeble Cue: valid cue where following stimulus was an untested or no response greeble	GRE	V	1	0.72417	UT	UT	UT	UT
90.0007	0.5	Valid Other Greeble: stimulus that was an untested or no response greeble and that followed a valid cue	GRE	V	1	0.72417	UT	UT	UT	UT
92.0039	1.0	Invalid Other Greeble Cue: invalid cue where following stimulus was an untested or no response greeble	GRE	NV	1	0.6105	UT	UT	UT	UT
98.0039	0.5	Invalid Other Greeble: stimulus that was an untested or no response greeble and that followed a invalid cue	GRE	NV	1	0.6105	UT	UT	UT	UT
102.0008	1.0	Valid LC-Hit Cue: valid cue where following object was a subsequent low confidence hit	OBJ	V	1	1.172	LC-HIT	 1.8146	0	2.4061
104.0008	0.5	Valid LC-Hit Obj: object that was a subsequent low confidence hit and that followed a valid cue	OBJ	V	1	1.172	LC-HIT	 1.8146	0	2.4061
106.0012	1.0	Valid HC-Hit Cue: valid cue where following object was a subsequent high confidence hit	OBJ	V	1	1.0485	HC-HIT	 1.0636	1	1.202
108.0012	0.5	Valid HC-Hit Obj: object that was a subsequent high confidence hit and that followed a valid cue	OBJ	V	1	1.0485	HC-HIT	 1.0636	1	1.202
112.0018	1.0	Valid HC-Hit Cue: valid cue where following object was a subsequent high confidence hit	OBJ	V	1	0.39598	HC-HIT	 2.0218	1	1.1494
116.0018	0.5	Valid HC-Hit Obj: object that was a subsequent high confidence hit and that followed a valid cue	OBJ	V	1	0.39598	HC-HIT	 2.0218	1	1.1494
122.0019	1.0	Invalid LC-Hit Cue: invalid cue where following object was a subsequent low confidence hit	OBJ	NV	1	1.4182	LC-HIT	 1.6912	0	2.0707
128.0019	0.5	Invalid LC-Hit Obj: object that was a subsequent low confidence hit and that followed an invalid cue	OBJ	NV	1	1.4182	LC-HIT	 1.6912	0	2.0707
132.0012	1.0	Valid Other Greeble Cue: valid cue where following stimulus was an untested or no response greeble	GRE	V	1	0.70417	UT	UT	UT	UT
138.0012	0.5	Valid Other Greeble: stimulus that was an untested or no response greeble and that followed a valid cue	GRE	V	1	0.70417	UT	UT	UT	UT
140.001	1.0	Invalid Miss Cue: invalid cue where following object was a subsequent miss	OBJ	NV	1	1.2688	HC-MISS	 1.0816	UT	UT
142.001	0.5	Invalid Miss Obj: object that was a subsequent miss and that followed an invalid cue	OBJ	NV	1	1.2688	HC-MISS	 1.0816	UT	UT
148.0008	1.0	Valid Other Greeble Cue: valid cue where following stimulus was an untested or no response greeble	GRE	V	1	0.72464	UT	UT	UT	UT
150.0008	0.5	Valid Other Greeble: stimulus that was an untested or no response greeble and that followed a valid cue	GRE	V	1	0.72464	UT	UT	UT	UT
152.0007	1.0	Valid Miss Cue: valid cue where following object was a subsequent miss	OBJ	V	1	1.3155	HC-MISS	 1.9238	UT	UT
158.0007	0.5	Valid Miss Obj: object that was a subsequent miss and that followed a valid cue	OBJ	V	1	1.3155	HC-MISS	 1.9238	UT	UT
160.0014	1.0	Valid LC-Hit Cue: valid cue where following object was a subsequent low confidence hit	OBJ	V	1	0.99744	LC-HIT	 2.6295	0	1.2824
164.0014	0.5	Valid LC-Hit Obj: object that was a subsequent low confidence hit and that followed a valid cue	OBJ	V	1	0.99744	LC-HIT	 2.6295	0	1.2824
166.0009	1.0	Valid Other Greeble Cue: valid cue where following stimulus was an untested or no response greeble	GRE	V	1	0.8441799999999999	UT	UT	UT	UT
172.0009	0.5	Valid Other Greeble: stimulus that was an untested or no response greeble and that followed a valid cue	GRE	V	1	0.8441799999999999	UT	UT	UT	UT
174.00099999999998	1.0	Valid Miss Cue: valid cue where following object was a subsequent miss	OBJ	V	1	0.7911600000000001	LC-MISS	 1.9446	UT	UT
178.00099999999998	0.5	Valid Miss Obj: object that was a subsequent miss and that followed a valid cue	OBJ	V	1	0.7911600000000001	LC-MISS	 1.9446	UT	UT
180.0007	1.0	Invalid HC-Hit Cue: invalid cue where following object was a subsequent high confidence hit	OBJ	NV	1	1.8419999999999999	HC-HIT	 1.3989	1	1.8029
182.0007	0.5	Invalid HC-Hit Obj: object that was a subsequent high confidence hit and that followed an invalid cue	OBJ	NV	1	1.8419999999999999	HC-HIT	 1.3989	1	1.8029
186.0015	1.0	Valid Miss Cue: valid cue where following object was a subsequent miss	OBJ	V	1	1.0046	LC-MISS	 1.8179	UT	UT
188.0015	0.5	Valid Miss Obj: object that was a subsequent miss and that followed a valid cue	OBJ	V	1	1.0046	LC-MISS	 1.8179	UT	UT
190.0015	1.0	Valid Other Greeble Cue: valid cue where following stimulus was an untested or no response greeble	GRE	V	1	0.8116	UT	UT	UT	UT
196.0015	0.5	Valid Other Greeble: stimulus that was an untested or no response greeble and that followed a valid cue	GRE	V	1	0.8116	UT	UT	UT	UT
198.0014	1.0	Valid HC-Hit Cue: valid cue where following object was a subsequent high confidence hit	OBJ	V	1	0.92391	HC-HIT	0.96231	0	2.2249
204.0014	0.5	Valid HC-Hit Obj: object that was a subsequent high confidence hit and that followed a valid cue	OBJ	V	1	0.92391	HC-HIT	0.96231	0	2.2249
206.0018	1.0	Valid Other Greeble Cue: valid cue where following stimulus was an untested or no response greeble	GRE	V	1	0.81842	UT	UT	UT	UT
212.0018	0.5	Valid Other Greeble: stimulus that was an untested or no response greeble and that followed a valid cue	GRE	V	1	0.81842	UT	UT	UT	UT
214.0008	1.0	Invalid HC-Hit Cue: invalid cue where following object was a subsequent high confidence hit	OBJ	NV	1	1.189	HC-HIT	 2.8149	1	1.4773
218.0008	0.5	Invalid HC-Hit Obj: object that was a subsequent high confidence hit and that followed an invalid cue	OBJ	NV	1	1.189	HC-HIT	 2.8149	1	1.4773
222.0008	1.0	Valid HC-Hit Cue: valid cue where following object was a subsequent high confidence hit	OBJ	V	1	0.66301	HC-HIT	0.96739	1	0.57618
224.0008	0.5	Valid HC-Hit Obj: object that was a subsequent high confidence hit and that followed a valid cue	OBJ	V	1	0.66301	HC-HIT	0.96739	1	0.57618
226.0014	1.0	Valid HC-Hit Cue: valid cue where following object was a subsequent high confidence hit	OBJ	V	1	0.73012	HC-HIT	0.96908	1	2.5016
228.0014	0.5	Valid HC-Hit Obj: object that was a subsequent high confidence hit and that followed a valid cue	OBJ	V	1	0.73012	HC-HIT	0.96908	1	2.5016
232.0014	1.0	Valid Miss Cue: valid cue where following object was a subsequent miss	OBJ	V	1	0.69795	LC-MISS	 1.5145	UT	UT
236.0014	0.5	Valid Miss Obj: object that was a subsequent miss and that followed a valid cue	OBJ	V	1	0.69795	LC-MISS	 1.5145	UT	UT
238.0009	1.0	Valid Miss Cue: valid cue where following object was a subsequent miss	OBJ	V	1	0.64115	LC-MISS	0.83474	UT	UT
244.0009	0.5	Valid Miss Obj: object that was a subsequent miss and that followed a valid cue	OBJ	V	1	0.64115	LC-MISS	0.83474	UT	UT
246.0008	1.0	Valid Miss Cue: valid cue where following object was a subsequent miss	OBJ	V	1	0.58705	LC-MISS	  1.674	UT	UT
250.0008	0.5	Valid Miss Obj: object that was a subsequent miss and that followed a valid cue	OBJ	V	1	0.58705	LC-MISS	  1.674	UT	UT
252.0014	1.0	Invalid Other Greeble Cue: invalid cue where following stimulus was an untested or no response greeble	GRE	NV	1	1.0582	UT	UT	UT	UT
258.0014	0.5	Invalid Other Greeble: stimulus that was an untested or no response greeble and that followed a invalid cue	GRE	NV	1	1.0582	UT	UT	UT	UT
260.0011	1.0	Valid Other Greeble Cue: valid cue where following stimulus was an untested or no response greeble	GRE	V	1	0.61198	UT	UT	UT	UT
264.0011	0.5	Valid Other Greeble: stimulus that was an untested or no response greeble and that followed a valid cue	GRE	V	1	0.61198	UT	UT	UT	UT
266.0008	1.0	Valid Other Obj Cue: valid cue where following stimulus was an untested or no response object	OBJ	V	1	0.6883600000000001	UT	UT	UT	UT
268.0008	0.5	Valid Other Obj: stimulus that was an untested or no response object and that followed a valid cue	OBJ	V	1	0.6883600000000001	UT	UT	UT	UT
270.0008	1.0	Valid Other Greeble Cue: valid cue where following stimulus was an untested or no response greeble	GRE	V	1	0.68013	UT	UT	UT	UT
276.0008	0.5	Valid Other Greeble: stimulus that was an untested or no response greeble and that followed a valid cue	GRE	V	1	0.68013	UT	UT	UT	UT
278.0015	1.0	Valid Miss Cue: valid cue where following object was a subsequent miss	OBJ	V	1	0.6823	LC-MISS	 2.2925	UT	UT
282.0015	0.5	Valid Miss Obj: object that was a subsequent miss and that followed a valid cue	OBJ	V	1	0.6823	LC-MISS	 2.2925	UT	UT
284.0008	1.0	Valid Miss Cue: valid cue where following object was a subsequent miss	OBJ	V	1	0.63307	LC-MISS	 2.2094	UT	UT
290.0008	0.5	Valid Miss Obj: object that was a subsequent miss and that followed a valid cue	OBJ	V	1	0.63307	LC-MISS	 2.2094	UT	UT
292.0014	1.0	Valid Miss Cue: valid cue where following object was a subsequent miss	OBJ	V	1	0.78062	LC-MISS	 1.2144	UT	UT
294.0014	0.5	Valid Miss Obj: object that was a subsequent miss and that followed a valid cue	OBJ	V	1	0.78062	LC-MISS	 1.2144	UT	UT
296.0013	1.0	Valid Other Obj Cue: valid cue where following stimulus was an untested or no response object	OBJ	V	1	0.8252200000000001	UT	UT	UT	UT
298.0013	0.5	Valid Other Obj: stimulus that was an untested or no response object and that followed a valid cue	OBJ	V	1	0.8252200000000001	UT	UT	UT	UT
300.0011	1.0	Valid HC-Hit Cue: valid cue where following object was a subsequent high confidence hit	OBJ	V	1	1.3228	HC-HIT	 1.2389	0	0.71293
304.0011	0.5	Valid HC-Hit Obj: object that was a subsequent high confidence hit and that followed a valid cue	OBJ	V	1	1.3228	HC-HIT	 1.2389	0	0.71293
306.0019	1.0	Valid Miss Cue: valid cue where following object was a subsequent miss	OBJ	V	1	0.58585	LC-MISS	 2.1537	UT	UT
312.0019	0.5	Valid Miss Obj: object that was a subsequent miss and that followed a valid cue	OBJ	V	1	0.58585	LC-MISS	 2.1537	UT	UT
314.0019	1.0	Valid LC-Hit Cue: valid cue where following object was a subsequent low confidence hit	OBJ	V	1	1.2982	LC-HIT	 1.8203	0	0.66868
320.0019	0.5	Valid LC-Hit Obj: object that was a subsequent low confidence hit and that followed a valid cue	OBJ	V	1	1.2982	LC-HIT	 1.8203	0	0.66868
324.0011	1.0	Valid Miss Cue: valid cue where following object was a subsequent miss	OBJ	V	1	0.64991	LC-MISS	 1.1729	UT	UT
328.0011	0.5	Valid Miss Obj: object that was a subsequent miss and that followed a valid cue	OBJ	V	1	0.64991	LC-MISS	 1.1729	UT	UT
332.0008	1.0	Valid Other Greeble Cue: valid cue where following stimulus was an untested or no response greeble	GRE	V	1	0.72692	UT	UT	UT	UT
338.0008	0.5	Valid Other Greeble: stimulus that was an untested or no response greeble and that followed a valid cue	GRE	V	1	0.72692	UT	UT	UT	UT
342.0008	1.0	Valid HC-Hit Cue: valid cue where following object was a subsequent high confidence hit	OBJ	V	1	0.71243	HC-HIT	 1.5144	1	0.78648
344.0008	0.5	Valid HC-Hit Obj: object that was a subsequent high confidence hit and that followed a valid cue	OBJ	V	1	0.71243	HC-HIT	 1.5144	1	0.78648
346.0011	1.0	Invalid Miss Cue: invalid cue where following object was a subsequent miss	OBJ	NV	1	0.7781899999999999	LC-MISS	0.98711	UT	UT
350.0011	0.5	Invalid Miss Obj: object that was a subsequent miss and that followed an invalid cue	OBJ	NV	1	0.7781899999999999	LC-MISS	0.98711	UT	UT
352.0014	1.0	Valid Other Greeble Cue: valid cue where following stimulus was an untested or no response greeble	GRE	V	1	1.1471	UT	UT	UT	UT
356.0014	0.5	Valid Other Greeble: stimulus that was an untested or no response greeble and that followed a valid cue	GRE	V	1	1.1471	UT	UT	UT	UT
358.0012	1.0	Valid HC-Hit Cue: valid cue where following object was a subsequent high confidence hit	OBJ	V	1	0.7757	HC-HIT	 2.1113	1	1.5716
360.0012	0.5	Valid HC-Hit Obj: object that was a subsequent high confidence hit and that followed a valid cue	OBJ	V	1	0.7757	HC-HIT	 2.1113	1	1.5716
362.001	1.0	Valid Miss Cue: valid cue where following object was a subsequent miss	OBJ	V	1	0.7472300000000001	LC-MISS	 1.1987	UT	UT
364.001	0.5	Valid Miss Obj: object that was a subsequent miss and that followed a valid cue	OBJ	V	1	0.7472300000000001	LC-MISS	 1.1987	UT	UT
