onset	duration	trial_type	Response	Stimulus	RT
5.109	0.2	visual standard stimulus presentation	n/a	n/a	n/a
7.723	0.2	visual standard stimulus presentation	n/a	n/a	n/a
10.735999999999999	0.2	visual standard stimulus presentation	0.0	standard	n/a
13.333	0.2	visual standard stimulus presentation	0.0	standard	n/a
15.93	0.2	visual oddball stimulus presentation	1.0	target	n/a
15.93	0.384	behavioral response time following visual oddball stimulus onset	1.0	target	n/a
18.131	0.2	visual oddball stimulus presentation	1.0	target	n/a
18.131	0.299	behavioral response time following visual oddball stimulus onset	1.0	target	n/a
20.729	0.2	visual standard stimulus presentation	0.0	standard	n/a
23.129	0.42200000000000004	behavioral response time following visual oddball stimulus onset	1.0	target	n/a
23.129	0.2	visual oddball stimulus presentation	1.0	target	n/a
26.124000000000002	0.2	visual standard stimulus presentation	0.0	standard	n/a
28.125999999999998	0.2	visual standard stimulus presentation	0.0	standard	n/a
30.921	0.2	visual standard stimulus presentation	0.0	standard	n/a
32.923	0.2	visual standard stimulus presentation	0.0	standard	n/a
35.522	0.2	visual standard stimulus presentation	0.0	standard	n/a
37.723	0.2	visual standard stimulus presentation	0.0	standard	n/a
40.519	0.2	visual standard stimulus presentation	0.0	standard	n/a
42.918	0.2	visual standard stimulus presentation	0.0	standard	n/a
45.714	0.2	visual standard stimulus presentation	0.0	standard	n/a
47.913999999999994	0.2	visual standard stimulus presentation	0.0	standard	n/a
50.711999999999996	0.2	visual standard stimulus presentation	0.0	standard	n/a
53.507	0.2	visual standard stimulus presentation	0.0	standard	n/a
56.105	0.428	behavioral response time following visual oddball stimulus onset	1.0	target	n/a
56.105	0.2	visual oddball stimulus presentation	1.0	target	n/a
58.703	0.2	visual standard stimulus presentation	0.0	standard	n/a
61.301	0.2	visual standard stimulus presentation	0.0	standard	n/a
63.701	0.2	visual standard stimulus presentation	0.0	standard	n/a
65.9	0.2	visual standard stimulus presentation	0.0	standard	n/a
68.301	0.2	visual standard stimulus presentation	0.0	standard	n/a
70.89699999999999	0.2	visual standard stimulus presentation	0.0	standard	n/a
72.899	0.2	visual standard stimulus presentation	0.0	standard	n/a
75.697	0.46799999999999997	behavioral response time following visual oddball stimulus onset	1.0	target	n/a
75.697	0.2	visual oddball stimulus presentation	1.0	target	n/a
78.096	0.341	behavioral response time following visual oddball stimulus onset	1.0	target	n/a
78.096	0.2	visual oddball stimulus presentation	1.0	target	n/a
80.693	0.2	visual standard stimulus presentation	0.0	standard	n/a
83.291	0.2	visual standard stimulus presentation	0.0	standard	n/a
85.69	0.2	visual standard stimulus presentation	0.0	standard	n/a
88.289	0.2	visual standard stimulus presentation	0.0	standard	n/a
90.88600000000001	0.2	visual standard stimulus presentation	0.0	standard	n/a
93.68299999999999	0.2	visual standard stimulus presentation	0.0	standard	n/a
95.685	0.5	behavioral response time following visual oddball stimulus onset	1.0	target	n/a
95.685	0.2	visual oddball stimulus presentation	1.0	target	n/a
98.679	0.2	visual standard stimulus presentation	0.0	standard	n/a
100.682	0.2	visual standard stimulus presentation	0.0	standard	n/a
103.28	0.2	visual standard stimulus presentation	0.0	standard	n/a
105.28200000000001	0.2	visual standard stimulus presentation	0.0	standard	n/a
108.27600000000001	0.2	visual standard stimulus presentation	0.0	standard	n/a
110.477	0.2	visual standard stimulus presentation	0.0	standard	n/a
113.471	0.2	visual standard stimulus presentation	0.0	standard	n/a
116.46600000000001	0.2	visual standard stimulus presentation	0.0	standard	n/a
119.26299999999999	0.2	visual standard stimulus presentation	0.0	standard	n/a
121.266	0.2	visual standard stimulus presentation	0.0	standard	n/a
123.26700000000001	0.2	visual standard stimulus presentation	0.0	standard	n/a
125.865	0.2	visual oddball stimulus presentation	1.0	target	n/a
125.865	0.43799999999999994	behavioral response time following visual oddball stimulus onset	1.0	target	n/a
128.065	0.2	visual standard stimulus presentation	0.0	standard	n/a
131.06	0.2	visual standard stimulus presentation	0.0	standard	n/a
133.459	0.2	visual oddball stimulus presentation	1.0	target	n/a
133.459	0.409	behavioral response time following visual oddball stimulus onset	1.0	target	n/a
136.256	0.2	visual standard stimulus presentation	0.0	standard	n/a
138.855	0.2	visual standard stimulus presentation	0.0	standard	n/a
141.254	0.2	visual standard stimulus presentation	0.0	standard	n/a
144.249	0.415	behavioral response time following visual oddball stimulus onset	1.0	target	n/a
144.249	0.2	visual oddball stimulus presentation	1.0	target	n/a
147.243	0.2	visual standard stimulus presentation	0.0	standard	n/a
149.44299999999998	0.2	visual standard stimulus presentation	0.0	standard	n/a
152.438	0.2	visual standard stimulus presentation	0.0	standard	n/a
155.433	0.2	visual standard stimulus presentation	0.0	standard	n/a
158.23	0.2	visual standard stimulus presentation	0.0	standard	n/a
161.026	0.2	visual standard stimulus presentation	0.0	standard	n/a
163.623	0.2	visual standard stimulus presentation	0.0	standard	n/a
165.627	0.2	visual standard stimulus presentation	0.0	standard	n/a
168.422	0.2	visual oddball stimulus presentation	1.0	target	n/a
168.422	0.527	behavioral response time following visual oddball stimulus onset	1.0	target	n/a
170.425	0.2	visual standard stimulus presentation	0.0	standard	n/a
172.42700000000002	0.2	visual standard stimulus presentation	0.0	standard	n/a
174.429	0.2	visual standard stimulus presentation	0.0	standard	n/a
176.828	0.2	visual standard stimulus presentation	0.0	standard	n/a
179.02900000000002	0.2	visual standard stimulus presentation	0.0	standard	n/a
181.825	0.337	behavioral response time following visual oddball stimulus onset	1.0	target	n/a
181.825	0.2	visual oddball stimulus presentation	1.0	target	n/a
184.22400000000002	0.2	visual oddball stimulus presentation	1.0	target	n/a
184.22400000000002	0.45899999999999996	behavioral response time following visual oddball stimulus onset	1.0	target	n/a
186.425	0.2	visual standard stimulus presentation	0.0	standard	n/a
189.42	0.2	visual oddball stimulus presentation	1.0	target	n/a
189.42	0.434	behavioral response time following visual oddball stimulus onset	1.0	target	n/a
192.41400000000002	0.2	visual standard stimulus presentation	0.0	standard	n/a
195.21099999999998	0.2	visual standard stimulus presentation	0.0	standard	n/a
197.611	0.2	visual standard stimulus presentation	0.0	standard	n/a
200.209	0.2	visual standard stimulus presentation	0.0	standard	n/a
202.40900000000002	0.2	visual standard stimulus presentation	0.0	standard	n/a
205.205	0.2	visual standard stimulus presentation	0.0	standard	n/a
207.604	0.2	visual standard stimulus presentation	0.0	standard	n/a
210.6	0.2	visual standard stimulus presentation	0.0	standard	n/a
212.998	0.486	behavioral response time following visual oddball stimulus onset	1.0	target	n/a
212.998	0.2	visual oddball stimulus presentation	1.0	target	n/a
215.2	0.496	behavioral response time following visual oddball stimulus onset	1.0	target	n/a
215.2	0.2	visual oddball stimulus presentation	1.0	target	n/a
217.59799999999998	0.2	visual standard stimulus presentation	0.0	standard	n/a
220.394	0.2	visual standard stimulus presentation	0.0	standard	n/a
223.19099999999997	0.473	behavioral response time following visual oddball stimulus onset	1.0	target	n/a
223.19099999999997	0.2	visual oddball stimulus presentation	1.0	target	n/a
225.78900000000002	0.2	visual standard stimulus presentation	0.0	standard	n/a
227.791	0.2	visual standard stimulus presentation	0.0	standard	n/a
229.99200000000002	0.39299999999999996	behavioral response time following visual oddball stimulus onset	1.0	target	n/a
229.99200000000002	0.2	visual oddball stimulus presentation	1.0	target	n/a
232.986	0.479	behavioral response time following visual oddball stimulus onset	1.0	target	n/a
232.986	0.2	visual oddball stimulus presentation	1.0	target	n/a
235.386	0.2	visual standard stimulus presentation	0.0	standard	n/a
237.58599999999998	0.2	visual standard stimulus presentation	0.0	standard	n/a
239.985	0.2	visual standard stimulus presentation	0.0	standard	n/a
242.187	0.2	visual standard stimulus presentation	0.0	standard	n/a
244.58599999999998	0.2	visual standard stimulus presentation	0.0	standard	n/a
246.588	0.2	visual standard stimulus presentation	0.0	standard	n/a
248.59	0.2	visual standard stimulus presentation	0.0	standard	n/a
250.592	0.2	visual standard stimulus presentation	0.0	standard	n/a
253.19	0.2	visual standard stimulus presentation	0.0	standard	n/a
255.986	0.2	visual standard stimulus presentation	0.0	standard	n/a
257.98900000000003	0.419	behavioral response time following visual oddball stimulus onset	1.0	target	n/a
257.98900000000003	0.2	visual oddball stimulus presentation	1.0	target	n/a
260.785	0.523	behavioral response time following visual oddball stimulus onset	1.0	target	n/a
260.785	0.2	visual oddball stimulus presentation	1.0	target	n/a
263.383	0.2	visual standard stimulus presentation	0.0	standard	n/a
265.582	0.2	visual standard stimulus presentation	0.0	standard	n/a
267.784	0.2	visual standard stimulus presentation	0.0	standard	n/a
270.381	n/a	n/a	1.0	standard	n/a
272.582	0.2	visual standard stimulus presentation	0.0	standard	n/a
275.57599999999996	0.2	visual standard stimulus presentation	0.0	standard	n/a
278.374	0.2	visual standard stimulus presentation	0.0	standard	n/a
280.375	0.2	visual standard stimulus presentation	0.0	standard	n/a
283.371	0.2	visual oddball stimulus presentation	1.0	target	n/a
283.371	0.479	behavioral response time following visual oddball stimulus onset	1.0	target	n/a
285.969	0.2	visual standard stimulus presentation	0.0	standard	n/a
288.566	0.2	visual standard stimulus presentation	0.0	standard	n/a
290.76599999999996	0.2	visual standard stimulus presentation	0.0	standard	n/a
293.563	0.35100000000000003	behavioral response time following visual oddball stimulus onset	1.0	target	n/a
293.563	0.2	visual oddball stimulus presentation	1.0	target	n/a
295.565	0.2	visual standard stimulus presentation	0.0	standard	n/a
298.361	0.49	behavioral response time following visual oddball stimulus onset	1.0	target	n/a
298.361	0.2	visual oddball stimulus presentation	1.0	target	n/a
300.562	0.2	visual standard stimulus presentation	0.0	standard	n/a
303.16	0.2	visual standard stimulus presentation	0.0	standard	n/a
305.559	0.2	visual standard stimulus presentation	0.0	standard	n/a
307.561	0.565	behavioral response time following visual oddball stimulus onset	1.0	target	n/a
307.561	0.2	visual oddball stimulus presentation	1.0	target	n/a
310.158	0.2	visual standard stimulus presentation	0.0	standard	n/a
312.559	0.2	visual standard stimulus presentation	0.0	standard	n/a
315.355	0.2	visual standard stimulus presentation	0.0	standard	n/a
n/a	n/a	n/a	5.109	0	standard
n/a	n/a	n/a	7.723	0	standard
