onset	duration	trial_type	Response	Stimulus	response_time
4.978	0.200	auditory standard stimulus presentation	n/a	n/a	n/a
7.593	0.200	auditory standard stimulus presentation	n/a	n/a	n/a
10.207	0.200	auditory standard stimulus presentation	0.000	standard	n/a
12.440	0.200	auditory standard stimulus presentation	0.000	standard	n/a
15.286	0.200	auditory standard stimulus presentation	0.000	standard	n/a
17.918	0.390	behavioral response time following auditory oddball stimulus onset	1.000	target	n/a
17.918	0.200	auditory oddball stimulus presentation	1.000	target	n/a
20.963	0.200	auditory standard stimulus presentation	0.000	standard	n/a
23.213	0.200	auditory standard stimulus presentation	0.000	standard	n/a
25.644	0.386	behavioral response time following auditory oddball stimulus onset	1.000	target	n/a
25.644	0.200	auditory oddball stimulus presentation	1.000	target	n/a
28.491	0.200	auditory standard stimulus presentation	0.000	standard	n/a
31.321	0.200	auditory standard stimulus presentation	0.000	standard	n/a
34.150	0.200	auditory standard stimulus presentation	0.000	standard	n/a
36.781	0.301	behavioral response time following auditory oddball stimulus onset	1.000	target	n/a
36.781	0.200	auditory oddball stimulus presentation	1.000	target	n/a
39.825	0.200	auditory standard stimulus presentation	0.000	standard	n/a
42.853	0.200	auditory standard stimulus presentation	0.000	standard	n/a
45.484	0.200	auditory standard stimulus presentation	0.000	standard	n/a
48.115	0.200	auditory oddball stimulus presentation	1.000	target	n/a
48.115	0.315	behavioral response time following auditory oddball stimulus onset	1.000	target	n/a
50.745	0.200	auditory standard stimulus presentation	0.000	standard	n/a
53.791	0.200	auditory oddball stimulus presentation	1.000	target	n/a
53.791	0.529	behavioral response time following auditory oddball stimulus onset	1.000	target	n/a
56.620	0.200	auditory standard stimulus presentation	0.000	standard	n/a
59.051	0.200	auditory standard stimulus presentation	0.000	standard	n/a
61.484	0.340	behavioral response time following auditory oddball stimulus onset	1.000	target	n/a
61.484	0.200	auditory oddball stimulus presentation	1.000	target	n/a
64.131	0.200	auditory standard stimulus presentation	0.000	standard	n/a
66.382	0.200	auditory standard stimulus presentation	0.000	standard	n/a
68.418	0.200	auditory standard stimulus presentation	0.000	standard	n/a
71.462	0.363	behavioral response time following auditory oddball stimulus onset	1.000	target	n/a
71.462	0.200	auditory oddball stimulus presentation	1.000	target	n/a
73.496	0.200	auditory standard stimulus presentation	0.000	standard	n/a
75.532	n/a	n/a	0.000	standard	n/a
78.576	0.200	auditory oddball stimulus presentation	1.000	target	n/a
78.576	0.278	behavioral response time following auditory oddball stimulus onset	1.000	target	n/a
80.992	0.200	auditory standard stimulus presentation	0.000	standard	n/a
83.227	0.200	auditory standard stimulus presentation	0.000	standard	n/a
85.858	0.340	behavioral response time following auditory oddball stimulus onset	1.000	target	n/a
85.858	0.200	auditory oddball stimulus presentation	1.000	target	n/a
88.108	0.200	auditory standard stimulus presentation	0.000	standard	n/a
90.754	0.200	auditory standard stimulus presentation	0.000	standard	n/a
93.386	0.200	auditory standard stimulus presentation	0.000	standard	n/a
95.835	0.200	auditory standard stimulus presentation	0.000	standard	n/a
98.465	0.311	behavioral response time following auditory oddball stimulus onset	1.000	target	n/a
98.465	0.200	auditory oddball stimulus presentation	1.000	target	n/a
100.897	0.200	auditory standard stimulus presentation	0.000	standard	n/a
103.131	0.470	behavioral response time following auditory oddball stimulus onset	1.000	target	n/a
103.131	0.200	auditory oddball stimulus presentation	1.000	target	n/a
105.167	0.200	auditory standard stimulus presentation	0.000	standard	n/a
107.798	0.200	auditory standard stimulus presentation	0.000	standard	n/a
110.825	0.200	auditory standard stimulus presentation	0.000	standard	n/a
112.860	0.200	auditory standard stimulus presentation	0.000	standard	n/a
115.706	0.200	auditory standard stimulus presentation	0.000	standard	n/a
118.751	0.200	auditory standard stimulus presentation	0.000	standard	n/a
121.598	0.200	auditory oddball stimulus presentation	1.000	target	n/a
121.598	0.349	behavioral response time following auditory oddball stimulus onset	1.000	target	n/a
123.831	0.200	auditory oddball stimulus presentation	1.000	target	n/a
123.831	0.494	behavioral response time following auditory oddball stimulus onset	1.000	target	n/a
126.876	0.200	auditory standard stimulus presentation	0.000	standard	n/a
129.109	0.200	auditory standard stimulus presentation	0.000	standard	n/a
131.541	0.200	auditory standard stimulus presentation	0.000	standard	n/a
134.372	0.344	behavioral response time following auditory oddball stimulus onset	1.000	target	n/a
134.372	0.200	auditory oddball stimulus presentation	1.000	target	n/a
137.218	0.200	auditory standard stimulus presentation	0.000	standard	n/a
140.262	0.200	auditory standard stimulus presentation	0.000	standard	n/a
143.092	0.200	auditory standard stimulus presentation	0.000	standard	n/a
145.523	0.200	auditory standard stimulus presentation	0.000	standard	n/a
147.972	0.200	auditory standard stimulus presentation	0.000	standard	n/a
151.001	0.200	auditory standard stimulus presentation	0.000	standard	n/a
153.433	0.200	auditory standard stimulus presentation	0.000	standard	n/a
156.460	0.200	auditory standard stimulus presentation	0.000	standard	n/a
159.506	0.200	auditory standard stimulus presentation	0.000	standard	n/a
162.549	0.200	auditory standard stimulus presentation	0.000	standard	n/a
165.594	0.200	auditory standard stimulus presentation	0.000	standard	n/a
168.638	0.200	auditory standard stimulus presentation	0.000	standard	n/a
171.270	0.200	auditory standard stimulus presentation	0.000	standard	n/a
173.917	0.200	auditory standard stimulus presentation	0.000	standard	n/a
176.548	0.200	auditory standard stimulus presentation	0.000	standard	n/a
179.378	0.200	auditory standard stimulus presentation	0.000	standard	n/a
182.223	0.200	auditory standard stimulus presentation	0.000	standard	n/a
184.259	0.393	behavioral response time following auditory oddball stimulus onset	1.000	target	n/a
184.259	0.200	auditory oddball stimulus presentation	1.000	target	n/a
186.708	0.200	auditory standard stimulus presentation	0.000	standard	n/a
189.735	0.200	auditory standard stimulus presentation	0.000	standard	n/a
192.168	0.352	behavioral response time following auditory oddball stimulus onset	1.000	target	n/a
192.168	0.200	auditory oddball stimulus presentation	1.000	target	n/a
194.419	0.200	auditory standard stimulus presentation	0.000	standard	n/a
197.065	0.200	auditory standard stimulus presentation	0.000	standard	n/a
199.895	0.200	auditory standard stimulus presentation	0.000	standard	n/a
202.940	0.200	auditory standard stimulus presentation	0.000	standard	n/a
205.372	0.200	auditory standard stimulus presentation	0.000	standard	n/a
207.804	0.200	auditory standard stimulus presentation	0.000	standard	n/a
210.650	0.392	behavioral response time following auditory oddball stimulus onset	1.000	target	n/a
210.650	0.200	auditory oddball stimulus presentation	1.000	target	n/a
213.563	0.200	auditory standard stimulus presentation	0.000	standard	n/a
215.796	0.200	auditory oddball stimulus presentation	1.000	target	n/a
215.796	0.421	behavioral response time following auditory oddball stimulus onset	1.000	target	n/a
218.642	0.404	behavioral response time following auditory oddball stimulus onset	1.000	target	n/a
218.642	0.200	auditory oddball stimulus presentation	1.000	target	n/a
221.471	0.200	auditory standard stimulus presentation	0.000	standard	n/a
224.102	0.200	auditory standard stimulus presentation	0.000	standard	n/a
226.138	0.200	auditory standard stimulus presentation	0.000	standard	n/a
228.569	0.200	auditory standard stimulus presentation	0.000	standard	n/a
231.614	0.200	auditory standard stimulus presentation	0.000	standard	n/a
234.063	0.200	auditory standard stimulus presentation	0.000	standard	n/a
237.092	0.200	auditory standard stimulus presentation	0.000	standard	n/a
239.921	0.200	auditory standard stimulus presentation	0.000	standard	n/a
242.751	0.384	behavioral response time following auditory oddball stimulus onset	1.000	target	n/a
242.751	0.200	auditory oddball stimulus presentation	1.000	target	n/a
245.381	0.200	auditory standard stimulus presentation	0.000	standard	n/a
247.417	0.200	auditory standard stimulus presentation	0.000	standard	n/a
250.064	0.200	auditory standard stimulus presentation	0.000	standard	n/a
252.495	0.200	auditory standard stimulus presentation	0.000	standard	n/a
255.541	0.200	auditory standard stimulus presentation	0.000	standard	n/a
258.172	0.200	auditory standard stimulus presentation	0.000	standard	n/a
260.803	0.305	behavioral response time following auditory oddball stimulus onset	1.000	target	n/a
260.803	0.200	auditory oddball stimulus presentation	1.000	target	n/a
263.252	0.440	behavioral response time following auditory oddball stimulus onset	1.000	target	n/a
263.252	0.200	auditory oddball stimulus presentation	1.000	target	n/a
265.287	n/a	n/a	0.000	standard	n/a
268.331	0.200	auditory standard stimulus presentation	0.000	standard	n/a
270.764	0.200	auditory standard stimulus presentation	0.000	standard	n/a
272.996	0.432	behavioral response time following auditory oddball stimulus onset	1.000	target	n/a
272.996	0.200	auditory oddball stimulus presentation	1.000	target	n/a
275.231	0.200	auditory standard stimulus presentation	0.000	standard	n/a
277.879	0.200	auditory standard stimulus presentation	0.000	standard	n/a
280.129	0.200	auditory standard stimulus presentation	0.000	standard	n/a
282.163	0.200	auditory standard stimulus presentation	0.000	standard	n/a
284.795	0.200	auditory standard stimulus presentation	0.000	standard	n/a
287.640	0.200	auditory standard stimulus presentation	0.000	standard	n/a
289.693	0.200	auditory standard stimulus presentation	0.000	standard	n/a
292.721	0.200	auditory standard stimulus presentation	0.000	standard	n/a
294.755	0.420	behavioral response time following auditory oddball stimulus onset	1.000	target	n/a
294.755	0.200	auditory oddball stimulus presentation	1.000	target	n/a
296.990	0.200	auditory standard stimulus presentation	0.000	standard	n/a
299.223	0.434	behavioral response time following auditory oddball stimulus onset	1.000	target	n/a
299.223	0.200	auditory oddball stimulus presentation	1.000	target	n/a
301.291	0.200	auditory standard stimulus presentation	0.000	standard	n/a
303.724	0.200	auditory standard stimulus presentation	0.000	standard	n/a
306.752	0.200	auditory standard stimulus presentation	0.000	standard	n/a
308.787	0.200	auditory standard stimulus presentation	0.000	standard	n/a
311.235	0.200	auditory standard stimulus presentation	0.000	standard	n/a
313.669	0.200	auditory standard stimulus presentation	0.000	standard	n/a
316.299	0.200	auditory standard stimulus presentation	0.000	standard	n/a
319.344	0.200	auditory standard stimulus presentation	0.000	standard	n/a
322.372	0.200	auditory standard stimulus presentation	0.000	standard	n/a
325.400	0.200	auditory standard stimulus presentation	0.000	standard	n/a
328.047	0.200	auditory standard stimulus presentation	0.000	standard	n/a
n/a	n/a	n/a	4.978	0	standard
n/a	n/a	n/a	7.593	0	standard
