onset	duration	trial_type	Object_Cond	Validity_Cond	Obj_Accuracy	Obj_Acc_RT	Subseq_Recog	Subseq_Recog_RT	Subseq_Source_Mem_Acc	Subseq_Source_Mem_Acc_RT
4.0014	1.0	Valid Other Obj Cue: valid cue where following stimulus was an untested or no response object	OBJ	V	NR	NR	UT	UT	UT	UT
8.0014	0.5	Valid Other Obj: stimulus that was an untested or no response object and that followed a valid cue	OBJ	V	NR	NR	UT	UT	UT	UT
10.0019	1.0	Valid Other Greeble Cue: valid cue where following stimulus was an untested or no response greeble	GRE	V	1	 0.5617	UT	UT	UT	UT
14.0019	0.5	Valid Other Greeble: stimulus that was an untested or no response greeble and that followed a valid cue	GRE	V	1	 0.5617	UT	UT	UT	UT
16.0013	1.0	Valid Miss Cue: valid cue where following object was a subsequent miss	OBJ	V	NR	NR	LC-MISS	 2.0871	UT	UT
20.0013	0.5	Valid Miss Obj: object that was a subsequent miss and that followed a valid cue	OBJ	V	NR	NR	LC-MISS	 2.0871	UT	UT
26.0016	1.0	Valid Miss Cue: valid cue where following object was a subsequent miss	OBJ	V	1	0.61456	HC-MISS	 1.2839	UT	UT
32.0016	0.5	Valid Miss Obj: object that was a subsequent miss and that followed a valid cue	OBJ	V	1	0.61456	HC-MISS	 1.2839	UT	UT
34.0015	1.0	Valid Miss Cue: valid cue where following object was a subsequent miss	OBJ	V	1	0.53888	HC-MISS	 2.0184	UT	UT
36.0015	0.5	Valid Miss Obj: object that was a subsequent miss and that followed a valid cue	OBJ	V	1	0.53888	HC-MISS	 2.0184	UT	UT
38.0014	1.0	Invalid Miss Cue: invalid cue where following object was a subsequent miss	OBJ	NV	1	0.66111	HC-MISS	 1.0003	UT	UT
42.0014	0.5	Invalid Miss Obj: object that was a subsequent miss and that followed an invalid cue	OBJ	NV	1	0.66111	HC-MISS	 1.0003	UT	UT
46.0012	1.0	Valid Other Greeble Cue: valid cue where following stimulus was an untested or no response greeble	GRE	V	1	0.64477	UT	UT	UT	UT
50.0012	0.5	Valid Other Greeble: stimulus that was an untested or no response greeble and that followed a valid cue	GRE	V	1	0.64477	UT	UT	UT	UT
52.0008	1.0	Valid Miss Cue: valid cue where following object was a subsequent miss	OBJ	V	1	0.72828	HC-MISS	0.89539	UT	UT
54.0008	0.5	Valid Miss Obj: object that was a subsequent miss and that followed a valid cue	OBJ	V	1	0.72828	HC-MISS	0.89539	UT	UT
56.0014	1.0	Valid Miss Cue: valid cue where following object was a subsequent miss	OBJ	V	1	0.61488	LC-MISS	 1.3204	UT	UT
62.0014	0.5	Valid Miss Obj: object that was a subsequent miss and that followed a valid cue	OBJ	V	1	0.61488	LC-MISS	 1.3204	UT	UT
64.001	1.0	Invalid LC-Hit Cue: invalid cue where following object was a subsequent low confidence hit	OBJ	NV	1	0.69869	LC-HIT	 2.1992	0	0.70988
66.001	0.5	Invalid LC-Hit Obj: object that was a subsequent low confidence hit and that followed an invalid cue	OBJ	NV	1	0.69869	LC-HIT	 2.1992	0	0.70988
72.0016	1.0	Valid Miss Cue: valid cue where following object was a subsequent miss	OBJ	V	1	 0.7942	LC-MISS	 0.9484	UT	UT
76.0016	0.5	Valid Miss Obj: object that was a subsequent miss and that followed a valid cue	OBJ	V	1	 0.7942	LC-MISS	 0.9484	UT	UT
78.0019	1.0	Valid Miss Cue: valid cue where following object was a subsequent miss	OBJ	V	1	0.56801	HC-MISS	  1.323	UT	UT
84.0019	0.5	Valid Miss Obj: object that was a subsequent miss and that followed a valid cue	OBJ	V	1	0.56801	HC-MISS	  1.323	UT	UT
86.0016	1.0	Valid Other Greeble Cue: valid cue where following stimulus was an untested or no response greeble	GRE	V	0	0.68803	UT	UT	UT	UT
92.0016	0.5	Valid Other Greeble: stimulus that was an untested or no response greeble and that followed a valid cue	GRE	V	0	0.68803	UT	UT	UT	UT
94.0013	1.0	Valid Miss Cue: valid cue where following object was a subsequent miss	OBJ	V	1	0.84133	HC-MISS	0.97103	UT	UT
98.0013	0.5	Valid Miss Obj: object that was a subsequent miss and that followed a valid cue	OBJ	V	1	0.84133	HC-MISS	0.97103	UT	UT
100.00200000000001	1.0	Invalid HC-Hit Cue: invalid cue where following object was a subsequent high confidence hit	OBJ	NV	1	0.77214	HC-HIT	 1.4533	1	0.2054
104.00200000000001	0.5	Invalid HC-Hit Obj: object that was a subsequent high confidence hit and that followed an invalid cue	OBJ	NV	1	0.77214	HC-HIT	 1.4533	1	0.2054
106.0011	1.0	Invalid HC-Hit Cue: invalid cue where following object was a subsequent high confidence hit	OBJ	NV	1	 1.0557	HC-HIT	 1.9724	1	1.8284
108.0011	0.5	Invalid HC-Hit Obj: object that was a subsequent high confidence hit and that followed an invalid cue	OBJ	NV	1	 1.0557	HC-HIT	 1.9724	1	1.8284
112.0006	1.0	Valid Miss Cue: valid cue where following object was a subsequent miss	OBJ	V	1	 0.6562	HC-MISS	 1.5441	UT	UT
114.0006	0.5	Valid Miss Obj: object that was a subsequent miss and that followed a valid cue	OBJ	V	1	 0.6562	HC-MISS	 1.5441	UT	UT
116.0007	1.0	Valid Other Greeble Cue: valid cue where following stimulus was an untested or no response greeble	GRE	V	1	0.70873	UT	UT	UT	UT
118.0007	0.5	Valid Other Greeble: stimulus that was an untested or no response greeble and that followed a valid cue	GRE	V	1	0.70873	UT	UT	UT	UT
120.001	1.0	Valid Miss Cue: valid cue where following object was a subsequent miss	OBJ	V	1	0.65414	HC-MISS	 1.0405	UT	UT
124.001	0.5	Valid Miss Obj: object that was a subsequent miss and that followed a valid cue	OBJ	V	1	0.65414	HC-MISS	 1.0405	UT	UT
126.0008	1.0	Valid Other Greeble Cue: valid cue where following stimulus was an untested or no response greeble	GRE	V	1	0.55071	UT	UT	UT	UT
132.0008	0.5	Valid Other Greeble: stimulus that was an untested or no response greeble and that followed a valid cue	GRE	V	1	0.55071	UT	UT	UT	UT
136.0012	1.0	Valid Miss Cue: valid cue where following object was a subsequent miss	OBJ	V	1	0.57619	LC-MISS	 2.2108	UT	UT
138.0012	0.5	Valid Miss Obj: object that was a subsequent miss and that followed a valid cue	OBJ	V	1	0.57619	LC-MISS	 2.2108	UT	UT
140.0013	1.0	Valid HC-Hit Cue: valid cue where following object was a subsequent high confidence hit	OBJ	V	1	0.61555	HC-HIT	 1.7198	0	0.7087
146.0013	0.5	Valid HC-Hit Obj: object that was a subsequent high confidence hit and that followed a valid cue	OBJ	V	1	0.61555	HC-HIT	 1.7198	0	0.7087
150.0012	1.0	Valid HC-Hit Cue: valid cue where following object was a subsequent high confidence hit	OBJ	V	1	0.60916	HC-HIT	 1.2077	1	0.17051
152.0012	0.5	Valid HC-Hit Obj: object that was a subsequent high confidence hit and that followed a valid cue	OBJ	V	1	0.60916	HC-HIT	 1.2077	1	0.17051
154.0013	1.0	Valid Other Greeble Cue: valid cue where following stimulus was an untested or no response greeble	GRE	V	1	0.80114	UT	UT	UT	UT
160.0013	0.5	Valid Other Greeble: stimulus that was an untested or no response greeble and that followed a valid cue	GRE	V	1	0.80114	UT	UT	UT	UT
162.001	1.0	Valid Other Greeble Cue: valid cue where following stimulus was an untested or no response greeble	GRE	V	1	0.72843	UT	UT	UT	UT
168.00099999999998	0.5	Valid Other Greeble: stimulus that was an untested or no response greeble and that followed a valid cue	GRE	V	1	0.72843	UT	UT	UT	UT
170.0019	1.0	Valid Other Greeble Cue: valid cue where following stimulus was an untested or no response greeble	GRE	V	1	0.51607	UT	UT	UT	UT
172.0019	0.5	Valid Other Greeble: stimulus that was an untested or no response greeble and that followed a valid cue	GRE	V	1	0.51607	UT	UT	UT	UT
174.0018	1.0	Invalid HC-Hit Cue: invalid cue where following object was a subsequent high confidence hit	OBJ	NV	1	0.66229	HC-HIT	0.95679	1	0.80266
178.0018	0.5	Invalid HC-Hit Obj: object that was a subsequent high confidence hit and that followed an invalid cue	OBJ	NV	1	0.66229	HC-HIT	0.95679	1	0.80266
180.0013	1.0	Valid Miss Cue: valid cue where following object was a subsequent miss	OBJ	V	1	0.51058	LC-MISS	  1.027	UT	UT
186.0013	0.5	Valid Miss Obj: object that was a subsequent miss and that followed a valid cue	OBJ	V	1	0.51058	LC-MISS	  1.027	UT	UT
188.0018	1.0	Valid Other Greeble Cue: valid cue where following stimulus was an untested or no response greeble	GRE	V	1	0.68912	UT	UT	UT	UT
190.0018	0.5	Valid Other Greeble: stimulus that was an untested or no response greeble and that followed a valid cue	GRE	V	1	0.68912	UT	UT	UT	UT
192.00099999999998	1.0	Invalid Other Greeble Cue: invalid cue where following stimulus was an untested or no response greeble	GRE	NV	1	0.73961	UT	UT	UT	UT
196.00099999999998	0.5	Invalid Other Greeble: stimulus that was an untested or no response greeble and that followed a invalid cue	GRE	NV	1	0.73961	UT	UT	UT	UT
198.0015	1.0	Valid Miss Cue: valid cue where following object was a subsequent miss	OBJ	V	1	0.71917	HC-MISS	 1.4687	UT	UT
200.0015	0.5	Valid Miss Obj: object that was a subsequent miss and that followed a valid cue	OBJ	V	1	0.71917	HC-MISS	 1.4687	UT	UT
202.0014	1.0	Valid Other Obj Cue: valid cue where following stimulus was an untested or no response object	OBJ	V	1	 1.1028	UT	UT	UT	UT
208.0014	0.5	Valid Other Obj: stimulus that was an untested or no response object and that followed a valid cue	OBJ	V	1	 1.1028	UT	UT	UT	UT
210.0018	1.0	Valid HC-Hit Cue: valid cue where following object was a subsequent high confidence hit	OBJ	V	1	0.81353	HC-HIT	 1.2616	1	1.7812
216.0018	0.5	Valid HC-Hit Obj: object that was a subsequent high confidence hit and that followed a valid cue	OBJ	V	1	0.81353	HC-HIT	 1.2616	1	1.7812
218.0016	1.0	Valid Other Greeble Cue: valid cue where following stimulus was an untested or no response greeble	GRE	V	1	0.59853	UT	UT	UT	UT
224.0016	0.5	Valid Other Greeble: stimulus that was an untested or no response greeble and that followed a valid cue	GRE	V	1	0.59853	UT	UT	UT	UT
226.0019	1.0	Valid LC-Hit Cue: valid cue where following object was a subsequent low confidence hit	OBJ	V	1	0.90565	LC-HIT	 1.2455	0	0.15591
228.0019	0.5	Valid LC-Hit Obj: object that was a subsequent low confidence hit and that followed a valid cue	OBJ	V	1	0.90565	LC-HIT	 1.2455	0	0.15591
230.0018	1.0	Valid Other Greeble Cue: valid cue where following stimulus was an untested or no response greeble	GRE	V	1	0.64444	UT	UT	UT	UT
232.0018	0.5	Valid Other Greeble: stimulus that was an untested or no response greeble and that followed a valid cue	GRE	V	1	0.64444	UT	UT	UT	UT
234.0012	1.0	Invalid Miss Cue: invalid cue where following object was a subsequent miss	OBJ	NV	1	0.68542	HC-MISS	 1.3287	UT	UT
240.0012	0.5	Invalid Miss Obj: object that was a subsequent miss and that followed an invalid cue	OBJ	NV	1	0.68542	HC-MISS	 1.3287	UT	UT
244.0016	1.0	Valid Other Greeble Cue: valid cue where following stimulus was an untested or no response greeble	GRE	V	1	0.60955	UT	UT	UT	UT
250.0016	0.5	Valid Other Greeble: stimulus that was an untested or no response greeble and that followed a valid cue	GRE	V	1	0.60955	UT	UT	UT	UT
254.0008	1.0	Valid Other Obj Cue: valid cue where following stimulus was an untested or no response object	OBJ	V	1	 1.1623	UT	UT	UT	UT
258.0008	0.5	Valid Other Obj: stimulus that was an untested or no response object and that followed a valid cue	OBJ	V	1	 1.1623	UT	UT	UT	UT
260.0014	1.0	Valid LC-Hit Cue: valid cue where following object was a subsequent low confidence hit	OBJ	V	1	0.71621	LC-HIT	0.83473	0	0.64467
264.0014	0.5	Valid LC-Hit Obj: object that was a subsequent low confidence hit and that followed a valid cue	OBJ	V	1	0.71621	LC-HIT	0.83473	0	0.64467
266.0013	1.0	Valid Miss Cue: valid cue where following object was a subsequent miss	OBJ	V	1	 0.5822	LC-MISS	 2.1439	UT	UT
270.0013	0.5	Valid Miss Obj: object that was a subsequent miss and that followed a valid cue	OBJ	V	1	 0.5822	LC-MISS	 2.1439	UT	UT
274.0021	1.0	Valid Other Obj Cue: valid cue where following stimulus was an untested or no response object	OBJ	V	1	 1.0818	UT	UT	UT	UT
280.0021	0.5	Valid Other Obj: stimulus that was an untested or no response object and that followed a valid cue	OBJ	V	1	 1.0818	UT	UT	UT	UT
282.0017	1.0	Valid HC-Hit Cue: valid cue where following object was a subsequent high confidence hit	OBJ	V	1	0.91783	HC-HIT	  1.839	0	1.23
284.0017	0.5	Valid HC-Hit Obj: object that was a subsequent high confidence hit and that followed a valid cue	OBJ	V	1	0.91783	HC-HIT	  1.839	0	1.23
288.0012	1.0	Invalid Other Greeble Cue: invalid cue where following stimulus was an untested or no response greeble	GRE	NV	1	0.62437	UT	UT	UT	UT
290.0012	0.5	Invalid Other Greeble: stimulus that was an untested or no response greeble and that followed a invalid cue	GRE	NV	1	0.62437	UT	UT	UT	UT
292.0009	1.0	Valid HC-Hit Cue: valid cue where following object was a subsequent high confidence hit	OBJ	V	1	0.60159	HC-HIT	 1.4763	0	2.0609
296.0009	0.5	Valid HC-Hit Obj: object that was a subsequent high confidence hit and that followed a valid cue	OBJ	V	1	0.60159	HC-HIT	 1.4763	0	2.0609
298.0016	1.0	Valid LC-Hit Cue: valid cue where following object was a subsequent low confidence hit	OBJ	V	1	0.85713	LC-HIT	 1.9874	0	0.21735
304.0016	0.5	Valid LC-Hit Obj: object that was a subsequent low confidence hit and that followed a valid cue	OBJ	V	1	0.85713	LC-HIT	 1.9874	0	0.21735
306.002	1.0	Invalid HC-Hit Cue: invalid cue where following object was a subsequent high confidence hit	OBJ	NV	1	0.81427	HC-HIT	 1.4459	1	0.16925
308.002	0.5	Invalid HC-Hit Obj: object that was a subsequent high confidence hit and that followed an invalid cue	OBJ	NV	1	0.81427	HC-HIT	 1.4459	1	0.16925
310.001	1.0	Valid Other Obj Cue: valid cue where following stimulus was an untested or no response object	OBJ	V	1	0.58251	NR	NR	UT	UT
314.001	0.5	Valid Other Obj: stimulus that was an untested or no response object and that followed a valid cue	OBJ	V	1	0.58251	NR	NR	UT	UT
316.0015	1.0	Valid Other Greeble Cue: valid cue where following stimulus was an untested or no response greeble	GRE	V	1	0.60299	UT	UT	UT	UT
318.0015	0.5	Valid Other Greeble: stimulus that was an untested or no response greeble and that followed a valid cue	GRE	V	1	0.60299	UT	UT	UT	UT
320.001	1.0	Valid Miss Cue: valid cue where following object was a subsequent miss	OBJ	V	1	 0.5992	LC-MISS	 2.7233	UT	UT
322.001	0.5	Valid Miss Obj: object that was a subsequent miss and that followed a valid cue	OBJ	V	1	 0.5992	LC-MISS	 2.7233	UT	UT
326.0017	1.0	Valid Other Obj Cue: valid cue where following stimulus was an untested or no response object	OBJ	V	1	0.58114	UT	UT	UT	UT
332.0017	0.5	Valid Other Obj: stimulus that was an untested or no response object and that followed a valid cue	OBJ	V	1	0.58114	UT	UT	UT	UT
334.0015	1.0	Valid Miss Cue: valid cue where following object was a subsequent miss	OBJ	V	1	0.57366	HC-MISS	 1.4148	UT	UT
338.0015	0.5	Valid Miss Obj: object that was a subsequent miss and that followed a valid cue	OBJ	V	1	0.57366	HC-MISS	 1.4148	UT	UT
340.0011	1.0	Valid Miss Cue: valid cue where following object was a subsequent miss	OBJ	V	1	0.85097	HC-MISS	0.75974	UT	UT
344.0011	0.5	Valid Miss Obj: object that was a subsequent miss and that followed a valid cue	OBJ	V	1	0.85097	HC-MISS	0.75974	UT	UT
348.0013	1.0	Valid Other Greeble Cue: valid cue where following stimulus was an untested or no response greeble	GRE	V	1	0.62479	UT	UT	UT	UT
350.0013	0.5	Valid Other Greeble: stimulus that was an untested or no response greeble and that followed a valid cue	GRE	V	1	0.62479	UT	UT	UT	UT
352.0011	1.0	Invalid HC-Hit Cue: invalid cue where following object was a subsequent high confidence hit	OBJ	NV	1	0.63208	HC-HIT	0.92456	1	1.9622
358.0011	0.5	Invalid HC-Hit Obj: object that was a subsequent high confidence hit and that followed an invalid cue	OBJ	NV	1	0.63208	HC-HIT	0.92456	1	1.9622
360.0008	1.0	Valid LC-Hit Cue: valid cue where following object was a subsequent low confidence hit	OBJ	V	1	0.78591	LC-HIT	 2.4678	0	0.17494
364.0008	0.5	Valid LC-Hit Obj: object that was a subsequent low confidence hit and that followed a valid cue	OBJ	V	1	0.78591	LC-HIT	 2.4678	0	0.17494
