onset	duration	trial_type	Object_Cond	Validity_Cond	Obj_Accuracy	Obj_Acc_RT	Subseq_Recog	Subseq_Recog_RT	Subseq_Source_Mem_Acc	Subseq_Source_Mem_Acc_RT
4.001	1.000	Valid Other Greeble Cue: valid cue where following stimulus was an untested or no response greeble	GRE	V	1	0.70779	UT	UT	UT	UT
6.001	0.500	Valid Other Greeble: stimulus that was an untested or no response greeble and that followed a valid cue	GRE	V	1	0.70779	UT	UT	UT	UT
8.002	1.000	Valid Miss Cue: valid cue where following object was a subsequent miss	OBJ	V	1	0.56547	LC-MISS	 2.8418	UT	UT
12.002	0.500	Valid Miss Obj: object that was a subsequent miss and that followed a valid cue	OBJ	V	1	0.56547	LC-MISS	 2.8418	UT	UT
16.002	1.000	Valid HC-Hit Cue: valid cue where following object was a subsequent high confidence hit	OBJ	V	1	0.55701	HC-HIT	  2.026	1	2.7145
20.002	0.500	Valid HC-Hit Obj: object that was a subsequent high confidence hit and that followed a valid cue	OBJ	V	1	0.55701	HC-HIT	  2.026	1	2.7145
22.002	1.000	Valid Other Greeble Cue: valid cue where following stimulus was an untested or no response greeble	GRE	V	1	0.70093	UT	UT	UT	UT
28.002	0.500	Valid Other Greeble: stimulus that was an untested or no response greeble and that followed a valid cue	GRE	V	1	0.70093	UT	UT	UT	UT
32.001	1.000	Valid LC-Hit Cue: valid cue where following object was a subsequent low confidence hit	OBJ	V	1	 0.5639	LC-HIT	 2.0411	1	1.9387
36.001	0.500	Valid LC-Hit Obj: object that was a subsequent low confidence hit and that followed a valid cue	OBJ	V	1	 0.5639	LC-HIT	 2.0411	1	1.9387
38.001	1.000	Valid Other Greeble Cue: valid cue where following stimulus was an untested or no response greeble	GRE	V	1	0.69646	UT	UT	UT	UT
40.001	0.500	Valid Other Greeble: stimulus that was an untested or no response greeble and that followed a valid cue	GRE	V	1	0.69646	UT	UT	UT	UT
42.001	1.000	Invalid LC-Hit Cue: invalid cue where following object was a subsequent low confidence hit	OBJ	NV	1	 1.0039	LC-HIT	 2.6851	1	1.7038
44.001	0.500	Invalid LC-Hit Obj: object that was a subsequent low confidence hit and that followed an invalid cue	OBJ	NV	1	 1.0039	LC-HIT	 2.6851	1	1.7038
46.002	1.000	Valid HC-Hit Cue: valid cue where following object was a subsequent high confidence hit	OBJ	V	1	0.53355	HC-HIT	0.81366	0	2.7555
50.002	0.500	Valid HC-Hit Obj: object that was a subsequent high confidence hit and that followed a valid cue	OBJ	V	1	0.53355	HC-HIT	0.81366	0	2.7555
54.001	1.000	Valid HC-Hit Cue: valid cue where following object was a subsequent high confidence hit	OBJ	V	1	0.57977	HC-HIT	 1.7201	0	1.7995
60.001	0.500	Valid HC-Hit Obj: object that was a subsequent high confidence hit and that followed a valid cue	OBJ	V	1	0.57977	HC-HIT	 1.7201	0	1.7995
62.001	1.000	Valid HC-Hit Cue: valid cue where following object was a subsequent high confidence hit	OBJ	V	1	0.57226	HC-HIT	 1.4148	0	0.021927
66.001	0.500	Valid HC-Hit Obj: object that was a subsequent high confidence hit and that followed a valid cue	OBJ	V	1	0.57226	HC-HIT	 1.4148	0	0.021927
68.001	1.000	Valid HC-Hit Cue: valid cue where following object was a subsequent high confidence hit	OBJ	V	NR	NR	HC-HIT	 1.5695	1	3.4791
72.001	0.500	Valid HC-Hit Obj: object that was a subsequent high confidence hit and that followed a valid cue	OBJ	V	NR	NR	HC-HIT	 1.5695	1	3.4791
78.001	1.000	Valid Other Obj Cue: valid cue where following stimulus was an untested or no response object	OBJ	V	1	0.67634	UT	UT	UT	UT
82.001	0.500	Valid Other Obj: stimulus that was an untested or no response object and that followed a valid cue	OBJ	V	1	0.67634	UT	UT	UT	UT
84.001	1.000	Valid HC-Hit Cue: valid cue where following object was a subsequent high confidence hit	OBJ	V	1	0.55897	HC-HIT	 1.1534	1	1.3581
86.001	0.500	Valid HC-Hit Obj: object that was a subsequent high confidence hit and that followed a valid cue	OBJ	V	1	0.55897	HC-HIT	 1.1534	1	1.3581
88.002	1.000	Valid HC-Hit Cue: valid cue where following object was a subsequent high confidence hit	OBJ	V	1	0.50555	HC-HIT	 1.5021	1	1.7215
92.002	0.500	Valid HC-Hit Obj: object that was a subsequent high confidence hit and that followed a valid cue	OBJ	V	1	0.50555	HC-HIT	 1.5021	1	1.7215
94.001	1.000	Valid Other Obj Cue: valid cue where following stimulus was an untested or no response object	OBJ	V	1	0.62067	UT	UT	UT	UT
96.001	0.500	Valid Other Obj: stimulus that was an untested or no response object and that followed a valid cue	OBJ	V	1	0.62067	UT	UT	UT	UT
98.001	1.000	Valid Other Greeble Cue: valid cue where following stimulus was an untested or no response greeble	GRE	V	1	0.74099	UT	UT	UT	UT
104.001	0.500	Valid Other Greeble: stimulus that was an untested or no response greeble and that followed a valid cue	GRE	V	1	0.74099	UT	UT	UT	UT
106.002	1.000	Invalid LC-Hit Cue: invalid cue where following object was a subsequent low confidence hit	OBJ	NV	1	0.67172	LC-HIT	 2.7946	0	2.8823
110.002	0.500	Invalid LC-Hit Obj: object that was a subsequent low confidence hit and that followed an invalid cue	OBJ	NV	1	0.67172	LC-HIT	 2.7946	0	2.8823
114.001	1.000	Valid LC-Hit Cue: valid cue where following object was a subsequent low confidence hit	OBJ	V	1	0.83989	LC-HIT	 1.8145	1	1.9117
116.001	0.500	Valid LC-Hit Obj: object that was a subsequent low confidence hit and that followed a valid cue	OBJ	V	1	0.83989	LC-HIT	 1.8145	1	1.9117
118.002	1.000	Valid LC-Hit Cue: valid cue where following object was a subsequent low confidence hit	OBJ	V	1	0.57071	LC-HIT	 2.5813	1	1.1739
122.002	0.500	Valid LC-Hit Obj: object that was a subsequent low confidence hit and that followed a valid cue	OBJ	V	1	0.57071	LC-HIT	 2.5813	1	1.1739
124.001	1.000	Valid Miss Cue: valid cue where following object was a subsequent miss	OBJ	V	1	0.61326	LC-MISS	  3.019	UT	UT
126.001	0.500	Valid Miss Obj: object that was a subsequent miss and that followed a valid cue	OBJ	V	1	0.61326	LC-MISS	  3.019	UT	UT
130.002	1.000	Valid Other Greeble Cue: valid cue where following stimulus was an untested or no response greeble	GRE	V	1	0.73964	UT	UT	UT	UT
136.002	0.500	Valid Other Greeble: stimulus that was an untested or no response greeble and that followed a valid cue	GRE	V	1	0.73964	UT	UT	UT	UT
140.002	1.000	Invalid Miss Cue: invalid cue where following object was a subsequent miss	OBJ	NV	1	0.93697	LC-MISS	 3.1795	UT	UT
146.002	0.500	Invalid Miss Obj: object that was a subsequent miss and that followed an invalid cue	OBJ	NV	1	0.93697	LC-MISS	 3.1795	UT	UT
148.002	1.000	Valid Other Greeble Cue: valid cue where following stimulus was an untested or no response greeble	GRE	V	1	0.75489	UT	UT	UT	UT
152.002	0.500	Valid Other Greeble: stimulus that was an untested or no response greeble and that followed a valid cue	GRE	V	1	0.75489	UT	UT	UT	UT
154.001	1.000	Valid LC-Hit Cue: valid cue where following object was a subsequent low confidence hit	OBJ	V	1	0.58635	LC-HIT	  1.919	0	0.46064
160.001	0.500	Valid LC-Hit Obj: object that was a subsequent low confidence hit and that followed a valid cue	OBJ	V	1	0.58635	LC-HIT	  1.919	0	0.46064
162.001	1.000	Valid Other Greeble Cue: valid cue where following stimulus was an untested or no response greeble	GRE	V	1	0.70162	UT	UT	UT	UT
164.001	0.500	Valid Other Greeble: stimulus that was an untested or no response greeble and that followed a valid cue	GRE	V	1	0.70162	UT	UT	UT	UT
166.001	1.000	Valid Other Obj Cue: valid cue where following stimulus was an untested or no response object	OBJ	V	1	0.62535	UT	UT	UT	UT
168.001	0.500	Valid Other Obj: stimulus that was an untested or no response object and that followed a valid cue	OBJ	V	1	0.62535	UT	UT	UT	UT
170.002	1.000	Valid LC-Hit Cue: valid cue where following object was a subsequent low confidence hit	OBJ	V	1	0.58746	LC-HIT	 2.5332	0	2.3837
174.002	0.500	Valid LC-Hit Obj: object that was a subsequent low confidence hit and that followed a valid cue	OBJ	V	1	0.58746	LC-HIT	 2.5332	0	2.3837
176.001	1.000	Valid Other Greeble Cue: valid cue where following stimulus was an untested or no response greeble	GRE	V	1	 0.7789	UT	UT	UT	UT
182.001	0.500	Valid Other Greeble: stimulus that was an untested or no response greeble and that followed a valid cue	GRE	V	1	 0.7789	UT	UT	UT	UT
184.001	1.000	Valid HC-Hit Cue: valid cue where following object was a subsequent high confidence hit	OBJ	V	1	0.62155	HC-HIT	 1.7037	0	1.1619
188.001	0.500	Valid HC-Hit Obj: object that was a subsequent high confidence hit and that followed a valid cue	OBJ	V	1	0.62155	HC-HIT	 1.7037	0	1.1619
190.002	1.000	Valid Other Greeble Cue: valid cue where following stimulus was an untested or no response greeble	GRE	V	1	0.66126	UT	UT	UT	UT
196.002	0.500	Valid Other Greeble: stimulus that was an untested or no response greeble and that followed a valid cue	GRE	V	1	0.66126	UT	UT	UT	UT
198.001	1.000	Valid HC-Hit Cue: valid cue where following object was a subsequent high confidence hit	OBJ	V	1	0.61607	HC-HIT	 1.1146	1	1.0455
200.001	0.500	Valid HC-Hit Obj: object that was a subsequent high confidence hit and that followed a valid cue	OBJ	V	1	0.61607	HC-HIT	 1.1146	1	1.0455
202.002	1.000	Invalid Other Greeble Cue: invalid cue where following stimulus was an untested or no response greeble	GRE	NV	1	 1.0367	UT	UT	UT	UT
204.002	0.500	Invalid Other Greeble: stimulus that was an untested or no response greeble and that followed a invalid cue	GRE	NV	1	 1.0367	UT	UT	UT	UT
206.001	1.000	Valid Miss Cue: valid cue where following object was a subsequent miss	OBJ	V	1	0.58744	LC-MISS	 1.5748	UT	UT
212.001	0.500	Valid Miss Obj: object that was a subsequent miss and that followed a valid cue	OBJ	V	1	0.58744	LC-MISS	 1.5748	UT	UT
216.002	1.000	Valid LC-Hit Cue: valid cue where following object was a subsequent low confidence hit	OBJ	V	1	0.68447	LC-HIT	  2.419	1	1.7466
218.002	0.500	Valid LC-Hit Obj: object that was a subsequent low confidence hit and that followed a valid cue	OBJ	V	1	0.68447	LC-HIT	  2.419	1	1.7466
220.001	1.000	Valid Other Greeble Cue: valid cue where following stimulus was an untested or no response greeble	GRE	V	1	 0.6878	UT	UT	UT	UT
224.001	0.500	Valid Other Greeble: stimulus that was an untested or no response greeble and that followed a valid cue	GRE	V	1	 0.6878	UT	UT	UT	UT
226.002	1.000	Invalid Miss Cue: invalid cue where following object was a subsequent miss	OBJ	NV	1	0.93572	HC-MISS	 1.5385	UT	UT
230.002	0.500	Invalid Miss Obj: object that was a subsequent miss and that followed an invalid cue	OBJ	NV	1	0.93572	HC-MISS	 1.5385	UT	UT
232.001	1.000	Invalid Miss Cue: invalid cue where following object was a subsequent miss	OBJ	NV	1	 0.8836	HC-MISS	 1.9977	UT	UT
234.001	0.500	Invalid Miss Obj: object that was a subsequent miss and that followed an invalid cue	OBJ	NV	1	 0.8836	HC-MISS	 1.9977	UT	UT
240.001	1.000	Valid LC-Hit Cue: valid cue where following object was a subsequent low confidence hit	OBJ	V	1	0.62529	LC-HIT	 2.5767	1	1.569
244.001	0.500	Valid LC-Hit Obj: object that was a subsequent low confidence hit and that followed a valid cue	OBJ	V	1	0.62529	LC-HIT	 2.5767	1	1.569
246.001	1.000	Valid Miss Cue: valid cue where following object was a subsequent miss	OBJ	V	1	0.74587	LC-MISS	 1.6139	UT	UT
252.001	0.500	Valid Miss Obj: object that was a subsequent miss and that followed a valid cue	OBJ	V	1	0.74587	LC-MISS	 1.6139	UT	UT
254.001	1.000	Invalid Miss Cue: invalid cue where following object was a subsequent miss	OBJ	NV	1	 0.9957	LC-MISS	 2.8499	UT	UT
258.001	0.500	Invalid Miss Obj: object that was a subsequent miss and that followed an invalid cue	OBJ	NV	1	 0.9957	LC-MISS	 2.8499	UT	UT
260.001	1.000	Valid Other Obj Cue: valid cue where following stimulus was an untested or no response object	OBJ	V	1	 0.5565	UT	UT	UT	UT
264.001	0.500	Valid Other Obj: stimulus that was an untested or no response object and that followed a valid cue	OBJ	V	1	 0.5565	UT	UT	UT	UT
266.001	1.000	Valid Miss Cue: valid cue where following object was a subsequent miss	OBJ	V	1	0.52456	LC-MISS	 1.4519	UT	UT
272.001	0.500	Valid Miss Obj: object that was a subsequent miss and that followed a valid cue	OBJ	V	1	0.52456	LC-MISS	 1.4519	UT	UT
274.001	1.000	Valid Miss Cue: valid cue where following object was a subsequent miss	OBJ	V	1	0.56742	LC-MISS	 1.5835	UT	UT
276.001	0.500	Valid Miss Obj: object that was a subsequent miss and that followed a valid cue	OBJ	V	1	0.56742	LC-MISS	 1.5835	UT	UT
278.002	1.000	Valid Other Obj Cue: valid cue where following stimulus was an untested or no response object	OBJ	V	1	0.55886	UT	UT	UT	UT
284.002	0.500	Valid Other Obj: stimulus that was an untested or no response object and that followed a valid cue	OBJ	V	1	0.55886	UT	UT	UT	UT
286.002	1.000	Valid HC-Hit Cue: valid cue where following object was a subsequent high confidence hit	OBJ	V	1	0.61945	HC-HIT	 1.4488	0	3.8852
288.002	0.500	Valid HC-Hit Obj: object that was a subsequent high confidence hit and that followed a valid cue	OBJ	V	1	0.61945	HC-HIT	 1.4488	0	3.8852
292.001	1.000	Invalid Miss Cue: invalid cue where following object was a subsequent miss	OBJ	NV	1	0.61462	LC-MISS	 1.9917	UT	UT
294.001	0.500	Invalid Miss Obj: object that was a subsequent miss and that followed an invalid cue	OBJ	NV	1	0.61462	LC-MISS	 1.9917	UT	UT
298.003	1.000	Invalid Other Greeble Cue: invalid cue where following stimulus was an untested or no response greeble	GRE	NV	1	0.87993	UT	UT	UT	UT
300.003	0.500	Invalid Other Greeble: stimulus that was an untested or no response greeble and that followed a invalid cue	GRE	NV	1	0.87993	UT	UT	UT	UT
302.001	1.000	Valid Other Greeble Cue: valid cue where following stimulus was an untested or no response greeble	GRE	V	1	0.78281	UT	UT	UT	UT
308.001	0.500	Valid Other Greeble: stimulus that was an untested or no response greeble and that followed a valid cue	GRE	V	1	0.78281	UT	UT	UT	UT
310.001	1.000	Valid LC-Hit Cue: valid cue where following object was a subsequent low confidence hit	OBJ	V	1	0.52708	LC-HIT	 2.6278	0	1.106
316.001	0.500	Valid LC-Hit Obj: object that was a subsequent low confidence hit and that followed a valid cue	OBJ	V	1	0.52708	LC-HIT	 2.6278	0	1.106
318.002	1.000	Valid Other Greeble Cue: valid cue where following stimulus was an untested or no response greeble	GRE	V	1	0.77333	UT	UT	UT	UT
324.002	0.500	Valid Other Greeble: stimulus that was an untested or no response greeble and that followed a valid cue	GRE	V	1	0.77333	UT	UT	UT	UT
326.001	1.000	Valid Other Greeble Cue: valid cue where following stimulus was an untested or no response greeble	GRE	V	1	0.76846	UT	UT	UT	UT
330.001	0.500	Valid Other Greeble: stimulus that was an untested or no response greeble and that followed a valid cue	GRE	V	1	0.76846	UT	UT	UT	UT
332.001	1.000	Valid LC-Hit Cue: valid cue where following object was a subsequent low confidence hit	OBJ	V	1	0.55885	LC-HIT	 2.0699	0	2.9084
338.001	0.500	Valid LC-Hit Obj: object that was a subsequent low confidence hit and that followed a valid cue	OBJ	V	1	0.55885	LC-HIT	 2.0699	0	2.9084
340.001	1.000	Valid Other Greeble Cue: valid cue where following stimulus was an untested or no response greeble	GRE	V	1	0.77487	UT	UT	UT	UT
346.001	0.500	Valid Other Greeble: stimulus that was an untested or no response greeble and that followed a valid cue	GRE	V	1	0.77487	UT	UT	UT	UT
348.001	1.000	Valid HC-Hit Cue: valid cue where following object was a subsequent high confidence hit	OBJ	V	1	0.64951	HC-HIT	 2.2401	0	2.9921
350.001	0.500	Valid HC-Hit Obj: object that was a subsequent high confidence hit and that followed a valid cue	OBJ	V	1	0.64951	HC-HIT	 2.2401	0	2.9921
352.001	1.000	Valid LC-Hit Cue: valid cue where following object was a subsequent low confidence hit	OBJ	V	1	0.46732	LC-HIT	 2.6617	0	0.95739
354.001	0.500	Valid LC-Hit Obj: object that was a subsequent low confidence hit and that followed a valid cue	OBJ	V	1	0.46732	LC-HIT	 2.6617	0	0.95739
356.002	1.000	Invalid Miss Cue: invalid cue where following object was a subsequent miss	OBJ	NV	1	0.98068	HC-MISS	 2.5408	UT	UT
362.002	0.500	Invalid Miss Obj: object that was a subsequent miss and that followed an invalid cue	OBJ	NV	1	0.98068	HC-MISS	 2.5408	UT	UT
