onset	duration	trial_type	Object_Cond	Validity_Cond	Obj_Accuracy	Obj_Acc_RT	Subseq_Recog	Subseq_Recog_RT	Subseq_Source_Mem_Acc	Subseq_Source_Mem_Acc_RT
4.001	1.000	Valid Other Greeble Cue: valid cue where following stimulus was an untested or no response greeble	GRE	V	1	0.60192	UT	UT	UT	UT
6.001	0.500	Valid Other Greeble: stimulus that was an untested or no response greeble and that followed a valid cue	GRE	V	1	0.60192	UT	UT	UT	UT
8.002	1.000	Valid HC-Hit Cue: valid cue where following object was a subsequent high confidence hit	OBJ	V	1	0.48028	HC-HIT	 0.7509	1	1.3603
12.002	0.500	Valid HC-Hit Obj: object that was a subsequent high confidence hit and that followed a valid cue	OBJ	V	1	0.48028	HC-HIT	 0.7509	1	1.3603
16.001	1.000	Valid Other Greeble Cue: valid cue where following stimulus was an untested or no response greeble	GRE	V	1	0.61624	UT	UT	UT	UT
22.001	0.500	Valid Other Greeble: stimulus that was an untested or no response greeble and that followed a valid cue	GRE	V	1	0.61624	UT	UT	UT	UT
24.002	1.000	Valid HC-Hit Cue: valid cue where following object was a subsequent high confidence hit	OBJ	V	1	0.59298	HC-HIT	 1.2793	0	1.691
30.002	0.500	Valid HC-Hit Obj: object that was a subsequent high confidence hit and that followed a valid cue	OBJ	V	1	0.59298	HC-HIT	 1.2793	0	1.691
32.002	1.000	Valid Other Obj Cue: valid cue where following stimulus was an untested or no response object	OBJ	V	1	0.58035	UT	UT	UT	UT
34.002	0.500	Valid Other Obj: stimulus that was an untested or no response object and that followed a valid cue	OBJ	V	1	0.58035	UT	UT	UT	UT
36.002	1.000	Valid LC-Hit Cue: valid cue where following object was a subsequent low confidence hit	OBJ	V	1	0.62822	LC-HIT	 2.4256	0	0.82315
42.002	0.500	Valid LC-Hit Obj: object that was a subsequent low confidence hit and that followed a valid cue	OBJ	V	1	0.62822	LC-HIT	 2.4256	0	0.82315
44.001	1.000	Valid LC-Hit Cue: valid cue where following object was a subsequent low confidence hit	OBJ	V	1	0.54322	LC-HIT	 3.4626	1	2.49
46.001	0.500	Valid LC-Hit Obj: object that was a subsequent low confidence hit and that followed a valid cue	OBJ	V	1	0.54322	LC-HIT	 3.4626	1	2.49
48.002	1.000	Valid HC-Hit Cue: valid cue where following object was a subsequent high confidence hit	OBJ	V	NR	NR	HC-HIT	 1.0607	1	0.9624
52.002	0.500	Valid HC-Hit Obj: object that was a subsequent high confidence hit and that followed a valid cue	OBJ	V	NR	NR	HC-HIT	 1.0607	1	0.9624
58.001	1.000	Invalid HC-Hit Cue: invalid cue where following object was a subsequent high confidence hit	OBJ	NV	1	0.86894	HC-HIT	 1.1548	1	0.80572
64.001	0.500	Invalid HC-Hit Obj: object that was a subsequent high confidence hit and that followed an invalid cue	OBJ	NV	1	0.86894	HC-HIT	 1.1548	1	0.80572
68.002	1.000	Valid Other Obj Cue: valid cue where following stimulus was an untested or no response object	OBJ	V	1	0.58699	UT	UT	UT	UT
74.002	0.500	Valid Other Obj: stimulus that was an untested or no response object and that followed a valid cue	OBJ	V	1	0.58699	UT	UT	UT	UT
76.001	1.000	Valid HC-Hit Cue: valid cue where following object was a subsequent high confidence hit	OBJ	V	1	0.52716	HC-HIT	 1.1515	0	2.0621
78.001	0.500	Valid HC-Hit Obj: object that was a subsequent high confidence hit and that followed a valid cue	OBJ	V	1	0.52716	HC-HIT	 1.1515	0	2.0621
80.001	1.000	Valid Other Greeble Cue: valid cue where following stimulus was an untested or no response greeble	GRE	V	1	0.53376	UT	UT	UT	UT
86.001	0.500	Valid Other Greeble: stimulus that was an untested or no response greeble and that followed a valid cue	GRE	V	1	0.53376	UT	UT	UT	UT
90.002	1.000	Invalid Miss Cue: invalid cue where following object was a subsequent miss	OBJ	NV	1	 0.7738	LC-MISS	  3.316	UT	UT
94.002	0.500	Invalid Miss Obj: object that was a subsequent miss and that followed an invalid cue	OBJ	NV	1	 0.7738	LC-MISS	  3.316	UT	UT
96.002	1.000	Valid Miss Cue: valid cue where following object was a subsequent miss	OBJ	V	1	0.56052	LC-MISS	 1.9656	UT	UT
98.002	0.500	Valid Miss Obj: object that was a subsequent miss and that followed a valid cue	OBJ	V	1	0.56052	LC-MISS	 1.9656	UT	UT
100.002	1.000	Invalid Miss Cue: invalid cue where following object was a subsequent miss	OBJ	NV	1	0.66011	HC-MISS	 2.9694	UT	UT
104.002	0.500	Invalid Miss Obj: object that was a subsequent miss and that followed an invalid cue	OBJ	NV	1	0.66011	HC-MISS	 2.9694	UT	UT
108.001	1.000	Valid HC-Hit Cue: valid cue where following object was a subsequent high confidence hit	OBJ	V	1	0.64239	HC-HIT	 1.6121	1	1.1276
112.001	0.500	Valid HC-Hit Obj: object that was a subsequent high confidence hit and that followed a valid cue	OBJ	V	1	0.64239	HC-HIT	 1.6121	1	1.1276
114.001	1.000	Invalid Other Greeble Cue: invalid cue where following stimulus was an untested or no response greeble	GRE	NV	1	0.75809	UT	UT	UT	UT
116.001	0.500	Invalid Other Greeble: stimulus that was an untested or no response greeble and that followed a invalid cue	GRE	NV	1	0.75809	UT	UT	UT	UT
118.001	1.000	Valid Other Obj Cue: valid cue where following stimulus was an untested or no response object	OBJ	V	1	0.57663	UT	UT	UT	UT
122.001	0.500	Valid Other Obj: stimulus that was an untested or no response object and that followed a valid cue	OBJ	V	1	0.57663	UT	UT	UT	UT
124.001	1.000	Valid LC-Hit Cue: valid cue where following object was a subsequent low confidence hit	OBJ	V	1	0.52867	LC-HIT	 3.0253	0	1.7329
128.001	0.500	Valid LC-Hit Obj: object that was a subsequent low confidence hit and that followed a valid cue	OBJ	V	1	0.52867	LC-HIT	 3.0253	0	1.7329
130.002	1.000	Valid Other Greeble Cue: valid cue where following stimulus was an untested or no response greeble	GRE	V	1	0.66584	UT	UT	UT	UT
136.002	0.500	Valid Other Greeble: stimulus that was an untested or no response greeble and that followed a valid cue	GRE	V	1	0.66584	UT	UT	UT	UT
138.001	1.000	Valid Miss Cue: valid cue where following object was a subsequent miss	OBJ	V	1	0.56465	HC-MISS	 2.1542	UT	UT
140.001	0.500	Valid Miss Obj: object that was a subsequent miss and that followed a valid cue	OBJ	V	1	0.56465	HC-MISS	 2.1542	UT	UT
142.002	1.000	Valid Miss Cue: valid cue where following object was a subsequent miss	OBJ	V	1	0.58362	LC-MISS	 2.7616	UT	UT
146.002	0.500	Valid Miss Obj: object that was a subsequent miss and that followed a valid cue	OBJ	V	1	0.58362	LC-MISS	 2.7616	UT	UT
148.001	1.000	Valid Miss Cue: valid cue where following object was a subsequent miss	OBJ	V	1	0.85804	LC-MISS	 1.8458	UT	UT
150.001	0.500	Valid Miss Obj: object that was a subsequent miss and that followed a valid cue	OBJ	V	1	0.85804	LC-MISS	 1.8458	UT	UT
154.002	1.000	Invalid HC-Hit Cue: invalid cue where following object was a subsequent high confidence hit	OBJ	NV	1	0.56451	HC-HIT	  1.871	0	0.86249
156.002	0.500	Invalid HC-Hit Obj: object that was a subsequent high confidence hit and that followed an invalid cue	OBJ	NV	1	0.56451	HC-HIT	  1.871	0	0.86249
162.001	1.000	Valid HC-Hit Cue: valid cue where following object was a subsequent high confidence hit	OBJ	V	1	0.43028	HC-HIT	 1.3507	1	2.1987
166.001	0.500	Valid HC-Hit Obj: object that was a subsequent high confidence hit and that followed a valid cue	OBJ	V	1	0.43028	HC-HIT	 1.3507	1	2.1987
168.001	1.000	Valid HC-Hit Cue: valid cue where following object was a subsequent high confidence hit	OBJ	V	1	0.45773	HC-HIT	 1.5331	1	1.1899
170.001	0.500	Valid HC-Hit Obj: object that was a subsequent high confidence hit and that followed a valid cue	OBJ	V	1	0.45773	HC-HIT	 1.5331	1	1.1899
172.001	1.000	Valid Other Greeble Cue: valid cue where following stimulus was an untested or no response greeble	GRE	V	1	0.51308	UT	UT	UT	UT
174.001	0.500	Valid Other Greeble: stimulus that was an untested or no response greeble and that followed a valid cue	GRE	V	1	0.51308	UT	UT	UT	UT
176.001	1.000	Valid Other Greeble Cue: valid cue where following stimulus was an untested or no response greeble	GRE	V	1	0.48076	UT	UT	UT	UT
178.001	0.500	Valid Other Greeble: stimulus that was an untested or no response greeble and that followed a valid cue	GRE	V	1	0.48076	UT	UT	UT	UT
180.002	1.000	Valid HC-Hit Cue: valid cue where following object was a subsequent high confidence hit	OBJ	V	1	0.60069	HC-HIT	 1.0132	1	2.5463
182.002	0.500	Valid HC-Hit Obj: object that was a subsequent high confidence hit and that followed a valid cue	OBJ	V	1	0.60069	HC-HIT	 1.0132	1	2.5463
186.001	1.000	Valid Other Greeble Cue: valid cue where following stimulus was an untested or no response greeble	GRE	V	1	0.61678	UT	UT	UT	UT
190.001	0.500	Valid Other Greeble: stimulus that was an untested or no response greeble and that followed a valid cue	GRE	V	1	0.61678	UT	UT	UT	UT
192.002	1.000	Valid Miss Cue: valid cue where following object was a subsequent miss	OBJ	V	1	0.68368	LC-MISS	 2.1566	UT	UT
194.002	0.500	Valid Miss Obj: object that was a subsequent miss and that followed a valid cue	OBJ	V	1	0.68368	LC-MISS	 2.1566	UT	UT
196.001	1.000	Invalid LC-Hit Cue: invalid cue where following object was a subsequent low confidence hit	OBJ	NV	1	0.65623	LC-HIT	 2.2005	0	1.1
198.001	0.500	Invalid LC-Hit Obj: object that was a subsequent low confidence hit and that followed an invalid cue	OBJ	NV	1	0.65623	LC-HIT	 2.2005	0	1.1
200.001	1.000	Valid LC-Hit Cue: valid cue where following object was a subsequent low confidence hit	OBJ	V	1	0.49441	LC-HIT	 3.0702	0	3.0353
204.001	0.500	Valid LC-Hit Obj: object that was a subsequent low confidence hit and that followed a valid cue	OBJ	V	1	0.49441	LC-HIT	 3.0702	0	3.0353
208.001	1.000	Valid Other Greeble Cue: valid cue where following stimulus was an untested or no response greeble	GRE	V	1	 0.6094	UT	UT	UT	UT
212.001	0.500	Valid Other Greeble: stimulus that was an untested or no response greeble and that followed a valid cue	GRE	V	1	 0.6094	UT	UT	UT	UT
214.001	1.000	Valid Other Greeble Cue: valid cue where following stimulus was an untested or no response greeble	GRE	V	1	0.39979	UT	UT	UT	UT
218.001	0.500	Valid Other Greeble: stimulus that was an untested or no response greeble and that followed a valid cue	GRE	V	1	0.39979	UT	UT	UT	UT
220.001	1.000	Valid HC-Hit Cue: valid cue where following object was a subsequent high confidence hit	OBJ	V	1	0.61941	HC-HIT	 1.9588	1	1.3867
226.001	0.500	Valid HC-Hit Obj: object that was a subsequent high confidence hit and that followed a valid cue	OBJ	V	1	0.61941	HC-HIT	 1.9588	1	1.3867
228.001	1.000	Valid Other Greeble Cue: valid cue where following stimulus was an untested or no response greeble	GRE	V	1	0.53306	UT	UT	UT	UT
232.001	0.500	Valid Other Greeble: stimulus that was an untested or no response greeble and that followed a valid cue	GRE	V	1	0.53306	UT	UT	UT	UT
234.001	1.000	Valid HC-Hit Cue: valid cue where following object was a subsequent high confidence hit	OBJ	V	1	0.51975	HC-HIT	 1.7659	NR	NR
236.001	0.500	Valid HC-Hit Obj: object that was a subsequent high confidence hit and that followed a valid cue	OBJ	V	1	0.51975	HC-HIT	 1.7659	NR	NR
238.001	1.000	Valid Miss Cue: valid cue where following object was a subsequent miss	OBJ	V	1	0.55463	HC-MISS	 1.5848	UT	UT
242.001	0.500	Valid Miss Obj: object that was a subsequent miss and that followed a valid cue	OBJ	V	1	0.55463	HC-MISS	 1.5848	UT	UT
244.001	1.000	Valid Other Greeble Cue: valid cue where following stimulus was an untested or no response greeble	GRE	V	1	0.56149	UT	UT	UT	UT
250.001	0.500	Valid Other Greeble: stimulus that was an untested or no response greeble and that followed a valid cue	GRE	V	1	0.56149	UT	UT	UT	UT
252.001	1.000	Invalid Miss Cue: invalid cue where following object was a subsequent miss	OBJ	NV	1	0.75241	LC-MISS	 1.8112	UT	UT
258.002	0.500	Invalid Miss Obj: object that was a subsequent miss and that followed an invalid cue	OBJ	NV	1	0.75241	LC-MISS	 1.8112	UT	UT
260.001	1.000	Valid HC-Hit Cue: valid cue where following object was a subsequent high confidence hit	OBJ	V	1	0.61061	HC-HIT	 1.6852	1	1.8458
264.001	0.500	Valid HC-Hit Obj: object that was a subsequent high confidence hit and that followed a valid cue	OBJ	V	1	0.61061	HC-HIT	 1.6852	1	1.8458
266.001	1.000	Valid HC-Hit Cue: valid cue where following object was a subsequent high confidence hit	OBJ	V	1	0.50775	HC-HIT	 3.2863	1	2.6075
272.001	0.500	Valid HC-Hit Obj: object that was a subsequent high confidence hit and that followed a valid cue	OBJ	V	1	0.50775	HC-HIT	 3.2863	1	2.6075
274.001	1.000	Valid Other Obj Cue: valid cue where following stimulus was an untested or no response object	OBJ	V	1	  0.649	UT	UT	UT	UT
280.001	0.500	Valid Other Obj: stimulus that was an untested or no response object and that followed a valid cue	OBJ	V	1	  0.649	UT	UT	UT	UT
282.001	1.000	Valid Other Greeble Cue: valid cue where following stimulus was an untested or no response greeble	GRE	V	1	0.63874	UT	UT	UT	UT
284.001	0.500	Valid Other Greeble: stimulus that was an untested or no response greeble and that followed a valid cue	GRE	V	1	0.63874	UT	UT	UT	UT
286.001	1.000	Valid HC-Hit Cue: valid cue where following object was a subsequent high confidence hit	OBJ	V	NR	NR	HC-HIT	  1.271	1	1.4108
290.001	0.500	Valid HC-Hit Obj: object that was a subsequent high confidence hit and that followed a valid cue	OBJ	V	NR	NR	HC-HIT	  1.271	1	1.4108
292.001	1.000	Invalid Miss Cue: invalid cue where following object was a subsequent miss	OBJ	NV	1	0.64881	LC-MISS	  1.601	UT	UT
296.001	0.500	Invalid Miss Obj: object that was a subsequent miss and that followed an invalid cue	OBJ	NV	1	0.64881	LC-MISS	  1.601	UT	UT
298.002	1.000	Valid Other Greeble Cue: valid cue where following stimulus was an untested or no response greeble	GRE	V	1	0.51414	UT	UT	UT	UT
304.002	0.500	Valid Other Greeble: stimulus that was an untested or no response greeble and that followed a valid cue	GRE	V	1	0.51414	UT	UT	UT	UT
306.002	1.000	Valid HC-Hit Cue: valid cue where following object was a subsequent high confidence hit	OBJ	V	NR	NR	HC-HIT	 1.1419	1	1.7026
312.002	0.500	Valid HC-Hit Obj: object that was a subsequent high confidence hit and that followed a valid cue	OBJ	V	NR	NR	HC-HIT	 1.1419	1	1.7026
314.001	1.000	Valid Other Obj Cue: valid cue where following stimulus was an untested or no response object	OBJ	V	1	0.53604	UT	UT	UT	UT
320.001	0.500	Valid Other Obj: stimulus that was an untested or no response object and that followed a valid cue	OBJ	V	1	0.53604	UT	UT	UT	UT
322.002	1.000	Valid HC-Hit Cue: valid cue where following object was a subsequent high confidence hit	OBJ	V	1	0.57457	HC-HIT	 1.4092	1	1.0298
328.002	0.500	Valid HC-Hit Obj: object that was a subsequent high confidence hit and that followed a valid cue	OBJ	V	1	0.57457	HC-HIT	 1.4092	1	1.0298
330.002	1.000	Valid HC-Hit Cue: valid cue where following object was a subsequent high confidence hit	OBJ	V	1	 0.6164	HC-HIT	0.92327	1	1.3518
334.002	0.500	Valid HC-Hit Obj: object that was a subsequent high confidence hit and that followed a valid cue	OBJ	V	1	 0.6164	HC-HIT	0.92327	1	1.3518
336.001	1.000	Invalid Other Greeble Cue: invalid cue where following stimulus was an untested or no response greeble	GRE	NV	1	0.77223	UT	UT	UT	UT
338.001	0.500	Invalid Other Greeble: stimulus that was an untested or no response greeble and that followed a invalid cue	GRE	NV	1	0.77223	UT	UT	UT	UT
340.002	1.000	Valid Other Greeble Cue: valid cue where following stimulus was an untested or no response greeble	GRE	V	1	0.53292	UT	UT	UT	UT
346.002	0.500	Valid Other Greeble: stimulus that was an untested or no response greeble and that followed a valid cue	GRE	V	1	0.53292	UT	UT	UT	UT
350.001	1.000	Invalid LC-Hit Cue: invalid cue where following object was a subsequent low confidence hit	OBJ	NV	1	0.57369	LC-HIT	 2.7196	0	1.5132
352.001	0.500	Invalid LC-Hit Obj: object that was a subsequent low confidence hit and that followed an invalid cue	OBJ	NV	1	0.57369	LC-HIT	 2.7196	0	1.5132
356.002	1.000	Valid Miss Cue: valid cue where following object was a subsequent miss	OBJ	V	1	0.69179	LC-MISS	 1.9445	UT	UT
362.002	0.500	Valid Miss Obj: object that was a subsequent miss and that followed a valid cue	OBJ	V	1	0.69179	LC-MISS	 1.9445	UT	UT
