onset	duration	trial_type	Object_Cond	Validity_Cond	Obj_Accuracy	Obj_Acc_RT	Subseq_Recog	Subseq_Recog_RT	Subseq_Source_Mem_Acc	Subseq_Source_Mem_Acc_RT
4.000	1.000	Valid Other Greeble Cue: valid cue where following stimulus was an untested or no response greeble	GRE	V	1	0.837	UT	UT	UT	UT
8.001	0.500	Valid Other Greeble: stimulus that was an untested or no response greeble and that followed a valid cue	GRE	V	1	0.837	UT	UT	UT	UT
10.002	1.000	Valid Other Greeble Cue: valid cue where following stimulus was an untested or no response greeble	GRE	V	1	0.656	UT	UT	UT	UT
14.002	0.500	Valid Other Greeble: stimulus that was an untested or no response greeble and that followed a valid cue	GRE	V	1	0.656	UT	UT	UT	UT
16.002	1.000	Invalid Miss Cue: invalid cue where following object was a subsequent miss	OBJ	NV	1	0.723	LC-MISS	 2.5496	UT	UT
18.002	0.500	Invalid Miss Obj: object that was a subsequent miss and that followed an invalid cue	OBJ	NV	1	0.723	LC-MISS	 2.5496	UT	UT
20.001	1.000	Valid HC-Hit Cue: valid cue where following object was a subsequent high confidence hit	OBJ	V	1	0.711	HC-HIT	 2.6847	1	1.9871
22.001	0.500	Valid HC-Hit Obj: object that was a subsequent high confidence hit and that followed a valid cue	OBJ	V	1	0.711	HC-HIT	 2.6847	1	1.9871
24.001	1.000	Valid Other Obj Cue: valid cue where following stimulus was an untested or no response object	OBJ	V	1	0.646	UT	UT	UT	UT
30.001	0.500	Valid Other Obj: stimulus that was an untested or no response object and that followed a valid cue	OBJ	V	1	0.646	UT	UT	UT	UT
32.004	1.000	Invalid Other Greeble Cue: invalid cue where following stimulus was an untested or no response greeble	GRE	NV	1	0.866	UT	UT	UT	UT
36.004	0.500	Invalid Other Greeble: stimulus that was an untested or no response greeble and that followed a invalid cue	GRE	NV	1	0.866	UT	UT	UT	UT
38.001	1.000	Valid HC-Hit Cue: valid cue where following object was a subsequent high confidence hit	OBJ	V	1	0.581	HC-HIT	 1.9276	1	1.2985
40.001	0.500	Valid HC-Hit Obj: object that was a subsequent high confidence hit and that followed a valid cue	OBJ	V	1	0.581	HC-HIT	 1.9276	1	1.2985
42.002	1.000	Valid Miss Cue: valid cue where following object was a subsequent miss	OBJ	V	1	0.559	LC-MISS	   2.72	UT	UT
46.002	0.500	Valid Miss Obj: object that was a subsequent miss and that followed a valid cue	OBJ	V	1	0.559	LC-MISS	   2.72	UT	UT
48.001	1.000	Valid Other Greeble Cue: valid cue where following stimulus was an untested or no response greeble	GRE	V	1	0.734	UT	UT	UT	UT
54.001	0.500	Valid Other Greeble: stimulus that was an untested or no response greeble and that followed a valid cue	GRE	V	1	0.734	UT	UT	UT	UT
56.002	1.000	Invalid HC-Hit Cue: invalid cue where following object was a subsequent high confidence hit	OBJ	NV	1	0.815	HC-HIT	 1.3396	0	0.053108
62.002	0.500	Invalid HC-Hit Obj: object that was a subsequent high confidence hit and that followed an invalid cue	OBJ	NV	1	0.815	HC-HIT	 1.3396	0	0.053108
64.001	1.000	Valid Other Obj Cue: valid cue where following stimulus was an untested or no response object	OBJ	V	1	0.686	UT	UT	UT	UT
70.001	0.500	Valid Other Obj: stimulus that was an untested or no response object and that followed a valid cue	OBJ	V	1	0.686	UT	UT	UT	UT
72.001	1.000	Valid Other Obj Cue: valid cue where following stimulus was an untested or no response object	OBJ	V	1	0.604	UT	UT	UT	UT
78.001	0.500	Valid Other Obj: stimulus that was an untested or no response object and that followed a valid cue	OBJ	V	1	0.604	UT	UT	UT	UT
80.001	1.000	Valid LC-Hit Cue: valid cue where following object was a subsequent low confidence hit	OBJ	V	1	0.434	LC-HIT	 2.7504	1	2.1594
84.001	0.500	Valid LC-Hit Obj: object that was a subsequent low confidence hit and that followed a valid cue	OBJ	V	1	0.434	LC-HIT	 2.7504	1	2.1594
86.002	1.000	Valid LC-Hit Cue: valid cue where following object was a subsequent low confidence hit	OBJ	V	1	0.569	LC-HIT	 2.8505	1	1.2075
90.002	0.500	Valid LC-Hit Obj: object that was a subsequent low confidence hit and that followed a valid cue	OBJ	V	1	0.569	LC-HIT	 2.8505	1	1.2075
94.002	1.000	Valid Miss Cue: valid cue where following object was a subsequent miss	OBJ	V	1	0.535	LC-MISS	 1.5067	UT	UT
98.002	0.500	Valid Miss Obj: object that was a subsequent miss and that followed a valid cue	OBJ	V	1	0.535	LC-MISS	 1.5067	UT	UT
100.001	1.000	Valid Miss Cue: valid cue where following object was a subsequent miss	OBJ	V	1	0.588	LC-MISS	 2.0689	UT	UT
102.001	0.500	Valid Miss Obj: object that was a subsequent miss and that followed a valid cue	OBJ	V	1	0.588	LC-MISS	 2.0689	UT	UT
104.001	1.000	Valid HC-Hit Cue: valid cue where following object was a subsequent high confidence hit	OBJ	V	1	0.645	HC-HIT	  1.601	1	1.3902
108.001	0.500	Valid HC-Hit Obj: object that was a subsequent high confidence hit and that followed a valid cue	OBJ	V	1	0.645	HC-HIT	  1.601	1	1.3902
114.001	1.000	Valid Other Greeble Cue: valid cue where following stimulus was an untested or no response greeble	GRE	V	1	0.629	UT	UT	UT	UT
116.001	0.500	Valid Other Greeble: stimulus that was an untested or no response greeble and that followed a valid cue	GRE	V	1	0.629	UT	UT	UT	UT
118.001	1.000	Valid HC-Hit Cue: valid cue where following object was a subsequent high confidence hit	OBJ	V	1	0.616	HC-HIT	 1.5479	1	0.98632
120.001	0.500	Valid HC-Hit Obj: object that was a subsequent high confidence hit and that followed a valid cue	OBJ	V	1	0.616	HC-HIT	 1.5479	1	0.98632
122.001	1.000	Invalid Other Greeble Cue: invalid cue where following stimulus was an untested or no response greeble	GRE	NV	1	0.772	UT	UT	UT	UT
124.001	0.500	Invalid Other Greeble: stimulus that was an untested or no response greeble and that followed a invalid cue	GRE	NV	1	0.772	UT	UT	UT	UT
126.002	1.000	Valid HC-Hit Cue: valid cue where following object was a subsequent high confidence hit	OBJ	V	1	0.583	HC-HIT	 1.3133	1	1.114
130.002	0.500	Valid HC-Hit Obj: object that was a subsequent high confidence hit and that followed a valid cue	OBJ	V	1	0.583	HC-HIT	 1.3133	1	1.114
132.001	1.000	Valid HC-Hit Cue: valid cue where following object was a subsequent high confidence hit	OBJ	V	1	0.669	HC-HIT	 1.2853	1	1.4089
138.001	0.500	Valid HC-Hit Obj: object that was a subsequent high confidence hit and that followed a valid cue	OBJ	V	1	0.669	HC-HIT	 1.2853	1	1.4089
140.001	1.000	Invalid LC-Hit Cue: invalid cue where following object was a subsequent low confidence hit	OBJ	NV	1	1.162	LC-HIT	 1.5993	0	1.2035
142.001	0.500	Invalid LC-Hit Obj: object that was a subsequent low confidence hit and that followed an invalid cue	OBJ	NV	1	1.162	LC-HIT	 1.5993	0	1.2035
146.002	1.000	Valid Other Greeble Cue: valid cue where following stimulus was an untested or no response greeble	GRE	V	1	0.782	UT	UT	UT	UT
152.002	0.500	Valid Other Greeble: stimulus that was an untested or no response greeble and that followed a valid cue	GRE	V	1	0.782	UT	UT	UT	UT
154.002	1.000	Valid LC-Hit Cue: valid cue where following object was a subsequent low confidence hit	OBJ	V	1	0.678	LC-HIT	 2.6665	1	2.6961
160.002	0.500	Valid LC-Hit Obj: object that was a subsequent low confidence hit and that followed a valid cue	OBJ	V	1	0.678	LC-HIT	 2.6665	1	2.6961
162.001	1.000	Valid LC-Hit Cue: valid cue where following object was a subsequent low confidence hit	OBJ	V	1	0.570	LC-HIT	 1.9028	1	0.98064
164.001	0.500	Valid LC-Hit Obj: object that was a subsequent low confidence hit and that followed a valid cue	OBJ	V	1	0.570	LC-HIT	 1.9028	1	0.98064
166.001	1.000	Valid Other Greeble Cue: valid cue where following stimulus was an untested or no response greeble	GRE	V	1	0.777	UT	UT	UT	UT
172.001	0.500	Valid Other Greeble: stimulus that was an untested or no response greeble and that followed a valid cue	GRE	V	1	0.777	UT	UT	UT	UT
174.001	1.000	Valid Other Greeble Cue: valid cue where following stimulus was an untested or no response greeble	GRE	V	1	0.878	UT	UT	UT	UT
176.001	0.500	Valid Other Greeble: stimulus that was an untested or no response greeble and that followed a valid cue	GRE	V	1	0.878	UT	UT	UT	UT
178.001	1.000	Valid LC-Hit Cue: valid cue where following object was a subsequent low confidence hit	OBJ	V	1	0.615	LC-HIT	 1.7197	0	1.0216
182.001	0.500	Valid LC-Hit Obj: object that was a subsequent low confidence hit and that followed a valid cue	OBJ	V	1	0.615	LC-HIT	 1.7197	0	1.0216
184.001	1.000	Valid Other Greeble Cue: valid cue where following stimulus was an untested or no response greeble	GRE	V	1	0.816	UT	UT	UT	UT
190.001	0.500	Valid Other Greeble: stimulus that was an untested or no response greeble and that followed a valid cue	GRE	V	1	0.816	UT	UT	UT	UT
194.002	1.000	Valid HC-Hit Cue: valid cue where following object was a subsequent high confidence hit	OBJ	V	1	0.565	HC-HIT	  1.603	0	2.5361
198.002	0.500	Valid HC-Hit Obj: object that was a subsequent high confidence hit and that followed a valid cue	OBJ	V	1	0.565	HC-HIT	  1.603	0	2.5361
200.001	1.000	Valid HC-Hit Cue: valid cue where following object was a subsequent high confidence hit	OBJ	V	1	0.662	HC-HIT	 1.9667	1	1.0587
206.001	0.500	Valid HC-Hit Obj: object that was a subsequent high confidence hit and that followed a valid cue	OBJ	V	1	0.662	HC-HIT	 1.9667	1	1.0587
210.001	1.000	Invalid LC-Hit Cue: invalid cue where following object was a subsequent low confidence hit	OBJ	NV	1	0.645	LC-HIT	 1.7364	0	1.7245
214.001	0.500	Invalid LC-Hit Obj: object that was a subsequent low confidence hit and that followed an invalid cue	OBJ	NV	1	0.645	LC-HIT	 1.7364	0	1.7245
216.001	1.000	Valid Miss Cue: valid cue where following object was a subsequent miss	OBJ	V	1	0.645	LC-MISS	 3.0809	UT	UT
222.001	0.500	Valid Miss Obj: object that was a subsequent miss and that followed a valid cue	OBJ	V	1	0.645	LC-MISS	 3.0809	UT	UT
224.002	1.000	Valid Miss Cue: valid cue where following object was a subsequent miss	OBJ	V	1	0.566	LC-MISS	 1.9353	UT	UT
230.002	0.500	Valid Miss Obj: object that was a subsequent miss and that followed a valid cue	OBJ	V	1	0.566	LC-MISS	 1.9353	UT	UT
232.001	1.000	Valid Other Greeble Cue: valid cue where following stimulus was an untested or no response greeble	GRE	V	1	0.760	UT	UT	UT	UT
234.001	0.500	Valid Other Greeble: stimulus that was an untested or no response greeble and that followed a valid cue	GRE	V	1	0.760	UT	UT	UT	UT
236.001	1.000	Valid Other Greeble Cue: valid cue where following stimulus was an untested or no response greeble	GRE	V	1	0.639	UT	UT	UT	UT
242.001	0.500	Valid Other Greeble: stimulus that was an untested or no response greeble and that followed a valid cue	GRE	V	1	0.639	UT	UT	UT	UT
246.001	1.000	Valid LC-Hit Cue: valid cue where following object was a subsequent low confidence hit	OBJ	V	1	0.634	LC-HIT	 1.9298	1	1.2631
248.001	0.500	Valid LC-Hit Obj: object that was a subsequent low confidence hit and that followed a valid cue	OBJ	V	1	0.634	LC-HIT	 1.9298	1	1.2631
250.001	1.000	Valid Other Obj Cue: valid cue where following stimulus was an untested or no response object	OBJ	V	1	0.723	UT	UT	UT	UT
254.001	0.500	Valid Other Obj: stimulus that was an untested or no response object and that followed a valid cue	OBJ	V	1	0.723	UT	UT	UT	UT
256.002	1.000	Valid Miss Cue: valid cue where following object was a subsequent miss	OBJ	V	1	0.559	HC-MISS	 1.6486	UT	UT
258.002	0.500	Valid Miss Obj: object that was a subsequent miss and that followed a valid cue	OBJ	V	1	0.559	HC-MISS	 1.6486	UT	UT
262.002	1.000	Valid Miss Cue: valid cue where following object was a subsequent miss	OBJ	V	1	0.601	HC-MISS	 1.8252	UT	UT
264.002	0.500	Valid Miss Obj: object that was a subsequent miss and that followed a valid cue	OBJ	V	1	0.601	HC-MISS	 1.8252	UT	UT
266.001	1.000	Valid Miss Cue: valid cue where following object was a subsequent miss	OBJ	V	1	0.554	LC-MISS	 1.9833	UT	UT
270.001	0.500	Valid Miss Obj: object that was a subsequent miss and that followed a valid cue	OBJ	V	1	0.554	LC-MISS	 1.9833	UT	UT
274.001	1.000	Valid Other Greeble Cue: valid cue where following stimulus was an untested or no response greeble	GRE	V	1	0.717	UT	UT	UT	UT
276.001	0.500	Valid Other Greeble: stimulus that was an untested or no response greeble and that followed a valid cue	GRE	V	1	0.717	UT	UT	UT	UT
278.001	1.000	Invalid Miss Cue: invalid cue where following object was a subsequent miss	OBJ	NV	1	1.031	LC-MISS	 2.3364	UT	UT
282.001	0.500	Invalid Miss Obj: object that was a subsequent miss and that followed an invalid cue	OBJ	NV	1	1.031	LC-MISS	 2.3364	UT	UT
284.001	1.000	Valid Other Obj Cue: valid cue where following stimulus was an untested or no response object	OBJ	V	1	0.623	UT	UT	UT	UT
288.001	0.500	Valid Other Obj: stimulus that was an untested or no response object and that followed a valid cue	OBJ	V	1	0.623	UT	UT	UT	UT
290.002	1.000	Invalid LC-Hit Cue: invalid cue where following object was a subsequent low confidence hit	OBJ	NV	1	0.920	LC-HIT	 3.1204	0	1.4581
296.002	0.500	Invalid LC-Hit Obj: object that was a subsequent low confidence hit and that followed an invalid cue	OBJ	NV	1	0.920	LC-HIT	 3.1204	0	1.4581
300.001	1.000	Valid Miss Cue: valid cue where following object was a subsequent miss	OBJ	V	1	0.557	LC-MISS	 3.1242	UT	UT
306.001	0.500	Valid Miss Obj: object that was a subsequent miss and that followed a valid cue	OBJ	V	1	0.557	LC-MISS	 3.1242	UT	UT
308.001	1.000	Invalid Miss Cue: invalid cue where following object was a subsequent miss	OBJ	NV	1	0.928	LC-MISS	 2.5455	UT	UT
310.001	0.500	Invalid Miss Obj: object that was a subsequent miss and that followed an invalid cue	OBJ	NV	1	0.928	LC-MISS	 2.5455	UT	UT
316.002	1.000	Valid Other Greeble Cue: valid cue where following stimulus was an untested or no response greeble	GRE	V	1	0.736	UT	UT	UT	UT
318.002	0.500	Valid Other Greeble: stimulus that was an untested or no response greeble and that followed a valid cue	GRE	V	1	0.736	UT	UT	UT	UT
320.001	1.000	Valid HC-Hit Cue: valid cue where following object was a subsequent high confidence hit	OBJ	V	1	0.595	HC-HIT	 1.5974	0	1.6511
324.001	0.500	Valid HC-Hit Obj: object that was a subsequent high confidence hit and that followed a valid cue	OBJ	V	1	0.595	HC-HIT	 1.5974	0	1.6511
326.002	1.000	Invalid Miss Cue: invalid cue where following object was a subsequent miss	OBJ	NV	1	0.635	LC-MISS	 2.1301	UT	UT
330.002	0.500	Invalid Miss Obj: object that was a subsequent miss and that followed an invalid cue	OBJ	NV	1	0.635	LC-MISS	 2.1301	UT	UT
334.002	1.000	Valid Other Greeble Cue: valid cue where following stimulus was an untested or no response greeble	GRE	V	1	0.717	UT	UT	UT	UT
336.002	0.500	Valid Other Greeble: stimulus that was an untested or no response greeble and that followed a valid cue	GRE	V	1	0.717	UT	UT	UT	UT
338.002	1.000	Valid LC-Hit Cue: valid cue where following object was a subsequent low confidence hit	OBJ	V	1	0.577	LC-HIT	 3.1608	1	3.0861
340.002	0.500	Valid LC-Hit Obj: object that was a subsequent low confidence hit and that followed a valid cue	OBJ	V	1	0.577	LC-HIT	 3.1608	1	3.0861
344.002	1.000	Valid HC-Hit Cue: valid cue where following object was a subsequent high confidence hit	OBJ	V	1	0.520	HC-HIT	 1.0951	1	0.80416
348.002	0.500	Valid HC-Hit Obj: object that was a subsequent high confidence hit and that followed a valid cue	OBJ	V	1	0.520	HC-HIT	 1.0951	1	0.80416
350.001	1.000	Valid Other Greeble Cue: valid cue where following stimulus was an untested or no response greeble	GRE	V	1	0.769	UT	UT	UT	UT
356.001	0.500	Valid Other Greeble: stimulus that was an untested or no response greeble and that followed a valid cue	GRE	V	1	0.769	UT	UT	UT	UT
358.001	1.000	Valid LC-Hit Cue: valid cue where following object was a subsequent low confidence hit	OBJ	V	1	0.543	LC-HIT	 1.6979	1	2.3779
364.001	0.500	Valid LC-Hit Obj: object that was a subsequent low confidence hit and that followed a valid cue	OBJ	V	1	0.543	LC-HIT	 1.6979	1	2.3779
