onset	duration	trial_type	Object_Cond	Validity_Cond	Obj_Accuracy	Obj_Acc_RT	Subseq_Recog	Subseq_Recog_RT	Subseq_Source_Mem_Acc	Subseq_Source_Mem_Acc_RT
4.000	1.000	Valid Other Greeble Cue: valid cue where following stimulus was an untested or no response greeble	GRE	V	1	  0.763	UT	UT	UT	UT
6.000	0.500	Valid Other Greeble: stimulus that was an untested or no response greeble and that followed a valid cue	GRE	V	1	  0.763	UT	UT	UT	UT
8.001	1.000	Valid LC-Hit Cue: valid cue where following object was a subsequent low confidence hit	OBJ	V	1	0.55054	LC-HIT	 1.5046	1	2.0019
10.001	0.500	Valid LC-Hit Obj: object that was a subsequent low confidence hit and that followed a valid cue	OBJ	V	1	0.55054	LC-HIT	 1.5046	1	2.0019
12.001	1.000	Valid HC-Hit Cue: valid cue where following object was a subsequent high confidence hit	OBJ	V	1	0.53563	HC-HIT	 1.6675	1	3.2207
18.001	0.500	Valid HC-Hit Obj: object that was a subsequent high confidence hit and that followed a valid cue	OBJ	V	1	0.53563	HC-HIT	 1.6675	1	3.2207
20.001	1.000	Valid HC-Hit Cue: valid cue where following object was a subsequent high confidence hit	OBJ	V	1	0.52155	HC-HIT	 1.0587	1	1.0569
24.001	0.500	Valid HC-Hit Obj: object that was a subsequent high confidence hit and that followed a valid cue	OBJ	V	1	0.52155	HC-HIT	 1.0587	1	1.0569
26.002	1.000	Valid Other Greeble Cue: valid cue where following stimulus was an untested or no response greeble	GRE	V	1	0.46341	UT	UT	UT	UT
30.002	0.500	Valid Other Greeble: stimulus that was an untested or no response greeble and that followed a valid cue	GRE	V	1	0.46341	UT	UT	UT	UT
32.002	1.000	Invalid Miss Cue: invalid cue where following object was a subsequent miss	OBJ	NV	1	0.80476	LC-MISS	  1.868	UT	UT
36.002	0.500	Invalid Miss Obj: object that was a subsequent miss and that followed an invalid cue	OBJ	NV	1	0.80476	LC-MISS	  1.868	UT	UT
40.002	1.000	Valid Other Obj Cue: valid cue where following stimulus was an untested or no response object	OBJ	V	1	0.56917	UT	UT	UT	UT
46.002	0.500	Valid Other Obj: stimulus that was an untested or no response object and that followed a valid cue	OBJ	V	1	0.56917	UT	UT	UT	UT
48.002	1.000	Valid Other Greeble Cue: valid cue where following stimulus was an untested or no response greeble	GRE	V	1	0.74962	UT	UT	UT	UT
50.002	0.500	Valid Other Greeble: stimulus that was an untested or no response greeble and that followed a valid cue	GRE	V	1	0.74962	UT	UT	UT	UT
52.002	1.000	Valid Other Greeble Cue: valid cue where following stimulus was an untested or no response greeble	GRE	V	1	0.70051	UT	UT	UT	UT
58.002	0.500	Valid Other Greeble: stimulus that was an untested or no response greeble and that followed a valid cue	GRE	V	1	0.70051	UT	UT	UT	UT
60.002	1.000	Valid Other Obj Cue: valid cue where following stimulus was an untested or no response object	OBJ	V	1	0.54805	UT	UT	UT	UT
66.002	0.500	Valid Other Obj: stimulus that was an untested or no response object and that followed a valid cue	OBJ	V	1	0.54805	UT	UT	UT	UT
70.002	1.000	Valid Miss Cue: valid cue where following object was a subsequent miss	OBJ	V	1	0.42421	LC-MISS	 2.4437	UT	UT
74.002	0.500	Valid Miss Obj: object that was a subsequent miss and that followed a valid cue	OBJ	V	1	0.42421	LC-MISS	 2.4437	UT	UT
78.002	1.000	Valid HC-Hit Cue: valid cue where following object was a subsequent high confidence hit	OBJ	V	1	0.53109	HC-HIT	 2.1864	1	0.68705
82.002	0.500	Valid HC-Hit Obj: object that was a subsequent high confidence hit and that followed a valid cue	OBJ	V	1	0.53109	HC-HIT	 2.1864	1	0.68705
84.001	1.000	Valid Other Greeble Cue: valid cue where following stimulus was an untested or no response greeble	GRE	V	1	0.65491	UT	UT	UT	UT
86.001	0.500	Valid Other Greeble: stimulus that was an untested or no response greeble and that followed a valid cue	GRE	V	1	0.65491	UT	UT	UT	UT
88.002	1.000	Valid Other Greeble Cue: valid cue where following stimulus was an untested or no response greeble	GRE	V	1	 0.6594	UT	UT	UT	UT
90.002	0.500	Valid Other Greeble: stimulus that was an untested or no response greeble and that followed a valid cue	GRE	V	1	 0.6594	UT	UT	UT	UT
92.002	1.000	Valid Miss Cue: valid cue where following object was a subsequent miss	OBJ	V	1	0.58399	HC-MISS	 2.1781	UT	UT
94.002	0.500	Valid Miss Obj: object that was a subsequent miss and that followed a valid cue	OBJ	V	1	0.58399	HC-MISS	 2.1781	UT	UT
96.002	1.000	Invalid Other Greeble Cue: invalid cue where following stimulus was an untested or no response greeble	GRE	NV	1	0.84818	UT	UT	UT	UT
100.002	0.500	Invalid Other Greeble: stimulus that was an untested or no response greeble and that followed a invalid cue	GRE	NV	1	0.84818	UT	UT	UT	UT
102.001	1.000	Valid LC-Hit Cue: valid cue where following object was a subsequent low confidence hit	OBJ	V	1	0.56095	LC-HIT	 2.5278	0	2.5809
108.001	0.500	Valid LC-Hit Obj: object that was a subsequent low confidence hit and that followed a valid cue	OBJ	V	1	0.56095	LC-HIT	 2.5278	0	2.5809
110.001	1.000	Valid Other Greeble Cue: valid cue where following stimulus was an untested or no response greeble	GRE	V	1	0.59166	UT	UT	UT	UT
116.001	0.500	Valid Other Greeble: stimulus that was an untested or no response greeble and that followed a valid cue	GRE	V	1	0.59166	UT	UT	UT	UT
118.001	1.000	Valid Miss Cue: valid cue where following object was a subsequent miss	OBJ	V	1	0.60801	LC-MISS	  1.773	UT	UT
124.001	0.500	Valid Miss Obj: object that was a subsequent miss and that followed a valid cue	OBJ	V	1	0.60801	LC-MISS	  1.773	UT	UT
126.001	1.000	Valid Other Obj Cue: valid cue where following stimulus was an untested or no response object	OBJ	V	1	0.62685	UT	UT	UT	UT
128.001	0.500	Valid Other Obj: stimulus that was an untested or no response object and that followed a valid cue	OBJ	V	1	0.62685	UT	UT	UT	UT
130.001	1.000	Valid Other Greeble Cue: valid cue where following stimulus was an untested or no response greeble	GRE	V	1	0.60636	UT	UT	UT	UT
132.001	0.500	Valid Other Greeble: stimulus that was an untested or no response greeble and that followed a valid cue	GRE	V	1	0.60636	UT	UT	UT	UT
134.001	1.000	Valid HC-Hit Cue: valid cue where following object was a subsequent high confidence hit	OBJ	V	1	0.48845	HC-HIT	 2.1353	0	2.1469
136.001	0.500	Valid HC-Hit Obj: object that was a subsequent high confidence hit and that followed a valid cue	OBJ	V	1	0.48845	HC-HIT	 2.1353	0	2.1469
140.001	1.000	Invalid LC-Hit Cue: invalid cue where following object was a subsequent low confidence hit	OBJ	NV	1	0.60567	LC-HIT	 2.1714	1	1.892
142.001	0.500	Invalid LC-Hit Obj: object that was a subsequent low confidence hit and that followed an invalid cue	OBJ	NV	1	0.60567	LC-HIT	 2.1714	1	1.892
144.002	1.000	Valid HC-Hit Cue: valid cue where following object was a subsequent high confidence hit	OBJ	V	1	0.43535	HC-HIT	 2.6744	1	0.97791
148.002	0.500	Valid HC-Hit Obj: object that was a subsequent high confidence hit and that followed a valid cue	OBJ	V	1	0.43535	HC-HIT	 2.6744	1	0.97791
150.001	1.000	Valid Other Greeble Cue: valid cue where following stimulus was an untested or no response greeble	GRE	V	1	0.77048	UT	UT	UT	UT
152.001	0.500	Valid Other Greeble: stimulus that was an untested or no response greeble and that followed a valid cue	GRE	V	1	0.77048	UT	UT	UT	UT
154.001	1.000	Valid HC-Hit Cue: valid cue where following object was a subsequent high confidence hit	OBJ	V	1	0.50959	HC-HIT	 2.4989	1	3.2239
158.001	0.500	Valid HC-Hit Obj: object that was a subsequent high confidence hit and that followed a valid cue	OBJ	V	1	0.50959	HC-HIT	 2.4989	1	3.2239
160.002	1.000	Valid Other Greeble Cue: valid cue where following stimulus was an untested or no response greeble	GRE	V	1	0.72644	UT	UT	UT	UT
164.002	0.500	Valid Other Greeble: stimulus that was an untested or no response greeble and that followed a valid cue	GRE	V	1	0.72644	UT	UT	UT	UT
166.001	1.000	Valid Other Greeble Cue: valid cue where following stimulus was an untested or no response greeble	GRE	V	1	0.82044	UT	UT	UT	UT
172.001	0.500	Valid Other Greeble: stimulus that was an untested or no response greeble and that followed a valid cue	GRE	V	1	0.82044	UT	UT	UT	UT
174.002	1.000	Valid LC-Hit Cue: valid cue where following object was a subsequent low confidence hit	OBJ	V	1	0.59617	LC-HIT	 2.6384	0	2.0667
180.002	0.500	Valid LC-Hit Obj: object that was a subsequent low confidence hit and that followed a valid cue	OBJ	V	1	0.59617	LC-HIT	 2.6384	0	2.0667
182.001	1.000	Valid Other Obj Cue: valid cue where following stimulus was an untested or no response object	OBJ	V	1	0.58799	UT	UT	UT	UT
188.001	0.500	Valid Other Obj: stimulus that was an untested or no response object and that followed a valid cue	OBJ	V	1	0.58799	UT	UT	UT	UT
190.001	1.000	Invalid Miss Cue: invalid cue where following object was a subsequent miss	OBJ	NV	1	0.88069	LC-MISS	 1.3252	UT	UT
192.001	0.500	Invalid Miss Obj: object that was a subsequent miss and that followed an invalid cue	OBJ	NV	1	0.88069	LC-MISS	 1.3252	UT	UT
198.001	1.000	Valid HC-Hit Cue: valid cue where following object was a subsequent high confidence hit	OBJ	V	1	0.54072	HC-HIT	 1.2279	0	1.3702
202.001	0.500	Valid HC-Hit Obj: object that was a subsequent high confidence hit and that followed a valid cue	OBJ	V	1	0.54072	HC-HIT	 1.2279	0	1.3702
204.002	1.000	Valid HC-Hit Cue: valid cue where following object was a subsequent high confidence hit	OBJ	V	1	0.64836	HC-HIT	 2.9145	0	2.1247
206.002	0.500	Valid HC-Hit Obj: object that was a subsequent high confidence hit and that followed a valid cue	OBJ	V	1	0.64836	HC-HIT	 2.9145	0	2.1247
208.001	1.000	Valid Other Greeble Cue: valid cue where following stimulus was an untested or no response greeble	GRE	V	1	0.81855	UT	UT	UT	UT
212.001	0.500	Valid Other Greeble: stimulus that was an untested or no response greeble and that followed a valid cue	GRE	V	1	0.81855	UT	UT	UT	UT
214.001	1.000	Valid Other Greeble Cue: valid cue where following stimulus was an untested or no response greeble	GRE	V	1	0.83409	UT	UT	UT	UT
220.001	0.500	Valid Other Greeble: stimulus that was an untested or no response greeble and that followed a valid cue	GRE	V	1	0.83409	UT	UT	UT	UT
222.001	1.000	Invalid Miss Cue: invalid cue where following object was a subsequent miss	OBJ	NV	1	0.63615	LC-MISS	 2.0962	UT	UT
226.001	0.500	Invalid Miss Obj: object that was a subsequent miss and that followed an invalid cue	OBJ	NV	1	0.63615	LC-MISS	 2.0962	UT	UT
228.001	1.000	Valid HC-Hit Cue: valid cue where following object was a subsequent high confidence hit	OBJ	V	1	0.74826	HC-HIT	 2.1016	0	1.5243
234.001	0.500	Valid HC-Hit Obj: object that was a subsequent high confidence hit and that followed a valid cue	OBJ	V	1	0.74826	HC-HIT	 2.1016	0	1.5243
236.002	1.000	Valid Miss Cue: valid cue where following object was a subsequent miss	OBJ	V	1	0.54426	LC-MISS	 2.5087	UT	UT
238.002	0.500	Valid Miss Obj: object that was a subsequent miss and that followed a valid cue	OBJ	V	1	0.54426	LC-MISS	 2.5087	UT	UT
240.001	1.000	Valid LC-Hit Cue: valid cue where following object was a subsequent low confidence hit	OBJ	V	1	0.54692	LC-HIT	 1.4687	0	1.4299
242.001	0.500	Valid LC-Hit Obj: object that was a subsequent low confidence hit and that followed a valid cue	OBJ	V	1	0.54692	LC-HIT	 1.4687	0	1.4299
244.002	1.000	Valid Miss Cue: valid cue where following object was a subsequent miss	OBJ	V	1	0.51882	LC-MISS	 2.5552	UT	UT
246.002	0.500	Valid Miss Obj: object that was a subsequent miss and that followed a valid cue	OBJ	V	1	0.51882	LC-MISS	 2.5552	UT	UT
250.001	1.000	Invalid LC-Hit Cue: invalid cue where following object was a subsequent low confidence hit	OBJ	NV	1	0.86055	LC-HIT	 2.0621	1	1.5019
256.001	0.500	Invalid LC-Hit Obj: object that was a subsequent low confidence hit and that followed an invalid cue	OBJ	NV	1	0.86055	LC-HIT	 2.0621	1	1.5019
260.001	1.000	Valid Miss Cue: valid cue where following object was a subsequent miss	OBJ	V	1	0.57971	LC-MISS	 1.6041	UT	UT
264.001	0.500	Valid Miss Obj: object that was a subsequent miss and that followed a valid cue	OBJ	V	1	0.57971	LC-MISS	 1.6041	UT	UT
266.002	1.000	Valid Other Obj Cue: valid cue where following stimulus was an untested or no response object	OBJ	V	1	0.59097	UT	UT	UT	UT
270.002	0.500	Valid Other Obj: stimulus that was an untested or no response object and that followed a valid cue	OBJ	V	1	0.59097	UT	UT	UT	UT
272.002	1.000	Invalid LC-Hit Cue: invalid cue where following object was a subsequent low confidence hit	OBJ	NV	1	0.80758	LC-HIT	 2.5844	1	2.786
276.002	0.500	Invalid LC-Hit Obj: object that was a subsequent low confidence hit and that followed an invalid cue	OBJ	NV	1	0.80758	LC-HIT	 2.5844	1	2.786
278.001	1.000	Valid HC-Hit Cue: valid cue where following object was a subsequent high confidence hit	OBJ	V	1	0.51263	HC-HIT	 1.2453	0	2.1388
284.001	0.500	Valid HC-Hit Obj: object that was a subsequent high confidence hit and that followed a valid cue	OBJ	V	1	0.51263	HC-HIT	 1.2453	0	2.1388
286.002	1.000	Valid Miss Cue: valid cue where following object was a subsequent miss	OBJ	V	1	0.42098	LC-MISS	 2.2918	UT	UT
290.002	0.500	Valid Miss Obj: object that was a subsequent miss and that followed a valid cue	OBJ	V	1	0.42098	LC-MISS	 2.2918	UT	UT
294.001	1.000	Valid Other Greeble Cue: valid cue where following stimulus was an untested or no response greeble	GRE	V	0	0.38747	UT	UT	UT	UT
300.001	0.500	Valid Other Greeble: stimulus that was an untested or no response greeble and that followed a valid cue	GRE	V	0	0.38747	UT	UT	UT	UT
302.002	1.000	Invalid LC-Hit Cue: invalid cue where following object was a subsequent low confidence hit	OBJ	NV	1	 1.0311	LC-HIT	 2.8667	0	2.3668
308.002	0.500	Invalid LC-Hit Obj: object that was a subsequent low confidence hit and that followed an invalid cue	OBJ	NV	1	 1.0311	LC-HIT	 2.8667	0	2.3668
310.002	1.000	Invalid Other Greeble Cue: invalid cue where following stimulus was an untested or no response greeble	GRE	NV	1	0.71879	UT	UT	UT	UT
316.002	0.500	Invalid Other Greeble: stimulus that was an untested or no response greeble and that followed a invalid cue	GRE	NV	1	0.71879	UT	UT	UT	UT
320.001	1.000	Valid Miss Cue: valid cue where following object was a subsequent miss	OBJ	V	1	0.69152	LC-MISS	 1.9513	UT	UT
326.001	0.500	Valid Miss Obj: object that was a subsequent miss and that followed a valid cue	OBJ	V	1	0.69152	LC-MISS	 1.9513	UT	UT
330.001	1.000	Valid LC-Hit Cue: valid cue where following object was a subsequent low confidence hit	OBJ	V	1	0.63492	LC-HIT	 1.2292	1	1.2834
334.001	0.500	Valid LC-Hit Obj: object that was a subsequent low confidence hit and that followed a valid cue	OBJ	V	1	0.63492	LC-HIT	 1.2292	1	1.2834
336.002	1.000	Valid HC-Hit Cue: valid cue where following object was a subsequent high confidence hit	OBJ	V	1	0.54217	HC-HIT	 1.7935	0	2.8446
338.002	0.500	Valid HC-Hit Obj: object that was a subsequent high confidence hit and that followed a valid cue	OBJ	V	1	0.54217	HC-HIT	 1.7935	0	2.8446
340.001	1.000	Valid Miss Cue: valid cue where following object was a subsequent miss	OBJ	V	1	0.56333	LC-MISS	 3.2368	UT	UT
342.001	0.500	Valid Miss Obj: object that was a subsequent miss and that followed a valid cue	OBJ	V	1	0.56333	LC-MISS	 3.2368	UT	UT
344.001	1.000	Invalid Miss Cue: invalid cue where following object was a subsequent miss	OBJ	NV	1	0.63938	LC-MISS	 1.0389	UT	UT
346.001	0.500	Invalid Miss Obj: object that was a subsequent miss and that followed an invalid cue	OBJ	NV	1	0.63938	LC-MISS	 1.0389	UT	UT
350.002	1.000	Valid Miss Cue: valid cue where following object was a subsequent miss	OBJ	V	NR	NR	LC-MISS	  1.082	UT	UT
354.002	0.500	Valid Miss Obj: object that was a subsequent miss and that followed a valid cue	OBJ	V	NR	NR	LC-MISS	  1.082	UT	UT
360.002	1.000	Valid HC-Hit Cue: valid cue where following object was a subsequent high confidence hit	OBJ	V	1	0.53958	HC-HIT	 1.5071	1	1.5956
364.002	0.500	Valid HC-Hit Obj: object that was a subsequent high confidence hit and that followed a valid cue	OBJ	V	1	0.53958	HC-HIT	 1.5071	1	1.5956
