onset	duration	trial_type	Object_Cond	Validity_Cond	Obj_Accuracy	Obj_Acc_RT	Subseq_Recog	Subseq_Recog_RT	Subseq_Source_Mem_Acc	Subseq_Source_Mem_Acc_RT
4.000	1.000	Valid Other Greeble Cue: valid cue where following stimulus was an untested or no response greeble	GRE	V	1	0.731	UT	UT	UT	UT
6.000	0.500	Valid Other Greeble: stimulus that was an untested or no response greeble and that followed a valid cue	GRE	V	1	0.731	UT	UT	UT	UT
8.002	1.000	Valid Other Greeble Cue: valid cue where following stimulus was an untested or no response greeble	GRE	V	1	0.607	UT	UT	UT	UT
10.002	0.500	Valid Other Greeble: stimulus that was an untested or no response greeble and that followed a valid cue	GRE	V	1	0.607	UT	UT	UT	UT
12.001	1.000	Valid HC-Hit Cue: valid cue where following object was a subsequent high confidence hit	OBJ	V	1	0.506	HC-HIT	 2.0947	0	1.6215
16.001	0.500	Valid HC-Hit Obj: object that was a subsequent high confidence hit and that followed a valid cue	OBJ	V	1	0.506	HC-HIT	 2.0947	0	1.6215
18.002	1.000	Valid Miss Cue: valid cue where following object was a subsequent miss	OBJ	V	1	0.617	HC-MISS	 2.5608	UT	UT
22.002	0.500	Valid Miss Obj: object that was a subsequent miss and that followed a valid cue	OBJ	V	1	0.617	HC-MISS	 2.5608	UT	UT
24.001	1.000	Invalid Other Greeble Cue: invalid cue where following stimulus was an untested or no response greeble	GRE	NV	1	0.762	UT	UT	UT	UT
30.001	0.500	Invalid Other Greeble: stimulus that was an untested or no response greeble and that followed a invalid cue	GRE	NV	1	0.762	UT	UT	UT	UT
32.002	1.000	Valid LC-Hit Cue: valid cue where following object was a subsequent low confidence hit	OBJ	V	1	0.646	LC-HIT	 2.5997	1	1.0624
34.002	0.500	Valid LC-Hit Obj: object that was a subsequent low confidence hit and that followed a valid cue	OBJ	V	1	0.646	LC-HIT	 2.5997	1	1.0624
38.002	1.000	Valid HC-Hit Cue: valid cue where following object was a subsequent high confidence hit	OBJ	V	1	0.571	HC-HIT	 1.3224	0	0.4589
44.002	0.500	Valid HC-Hit Obj: object that was a subsequent high confidence hit and that followed a valid cue	OBJ	V	1	0.571	HC-HIT	 1.3224	0	0.4589
46.001	1.000	Valid Miss Cue: valid cue where following object was a subsequent miss	OBJ	V	1	0.478	LC-MISS	 2.3948	UT	UT
52.001	0.500	Valid Miss Obj: object that was a subsequent miss and that followed a valid cue	OBJ	V	1	0.478	LC-MISS	 2.3948	UT	UT
56.000	1.000	Valid Miss Cue: valid cue where following object was a subsequent miss	OBJ	V	1	0.613	LC-MISS	 2.6067	UT	UT
58.000	0.500	Valid Miss Obj: object that was a subsequent miss and that followed a valid cue	OBJ	V	1	0.613	LC-MISS	 2.6067	UT	UT
60.001	1.000	Valid Other Greeble Cue: valid cue where following stimulus was an untested or no response greeble	GRE	V	1	0.631	UT	UT	UT	UT
62.001	0.500	Valid Other Greeble: stimulus that was an untested or no response greeble and that followed a valid cue	GRE	V	1	0.631	UT	UT	UT	UT
64.001	1.000	Valid Other Obj Cue: valid cue where following stimulus was an untested or no response object	OBJ	V	1	0.468	UT	UT	UT	UT
70.001	0.500	Valid Other Obj: stimulus that was an untested or no response object and that followed a valid cue	OBJ	V	1	0.468	UT	UT	UT	UT
74.001	1.000	Valid HC-Hit Cue: valid cue where following object was a subsequent high confidence hit	OBJ	V	1	0.511	HC-HIT	 2.2698	1	1.0865
78.001	0.500	Valid HC-Hit Obj: object that was a subsequent high confidence hit and that followed a valid cue	OBJ	V	1	0.511	HC-HIT	 2.2698	1	1.0865
80.001	1.000	Valid HC-Hit Cue: valid cue where following object was a subsequent high confidence hit	OBJ	V	1	0.527	HC-HIT	 1.1677	0	2.1669
86.001	0.500	Valid HC-Hit Obj: object that was a subsequent high confidence hit and that followed a valid cue	OBJ	V	1	0.527	HC-HIT	 1.1677	0	2.1669
88.001	1.000	Valid Other Obj Cue: valid cue where following stimulus was an untested or no response object	OBJ	V	1	0.671	UT	UT	UT	UT
94.001	0.500	Valid Other Obj: stimulus that was an untested or no response object and that followed a valid cue	OBJ	V	1	0.671	UT	UT	UT	UT
96.001	1.000	Valid Other Obj Cue: valid cue where following stimulus was an untested or no response object	OBJ	V	1	0.559	UT	UT	UT	UT
100.001	0.500	Valid Other Obj: stimulus that was an untested or no response object and that followed a valid cue	OBJ	V	1	0.559	UT	UT	UT	UT
102.001	1.000	Invalid HC-Hit Cue: invalid cue where following object was a subsequent high confidence hit	OBJ	NV	1	0.739	HC-HIT	 1.2906	1	1.8694
104.001	0.500	Invalid HC-Hit Obj: object that was a subsequent high confidence hit and that followed an invalid cue	OBJ	NV	1	0.739	HC-HIT	 1.2906	1	1.8694
106.001	1.000	Valid Miss Cue: valid cue where following object was a subsequent miss	OBJ	V	1	0.434	LC-MISS	 1.3563	UT	UT
110.001	0.500	Valid Miss Obj: object that was a subsequent miss and that followed a valid cue	OBJ	V	1	0.434	LC-MISS	 1.3563	UT	UT
114.001	1.000	Valid Other Obj Cue: valid cue where following stimulus was an untested or no response object	OBJ	V	1	0.476	UT	UT	UT	UT
116.001	0.500	Valid Other Obj: stimulus that was an untested or no response object and that followed a valid cue	OBJ	V	1	0.476	UT	UT	UT	UT
118.001	1.000	Valid LC-Hit Cue: valid cue where following object was a subsequent low confidence hit	OBJ	V	1	0.569	LC-HIT	 2.8488	1	1.6446
122.001	0.500	Valid LC-Hit Obj: object that was a subsequent low confidence hit and that followed a valid cue	OBJ	V	1	0.569	LC-HIT	 2.8488	1	1.6446
128.001	1.000	Valid Other Greeble Cue: valid cue where following stimulus was an untested or no response greeble	GRE	V	1	0.663	UT	UT	UT	UT
130.001	0.500	Valid Other Greeble: stimulus that was an untested or no response greeble and that followed a valid cue	GRE	V	1	0.663	UT	UT	UT	UT
132.001	1.000	Valid Other Greeble Cue: valid cue where following stimulus was an untested or no response greeble	GRE	V	1	0.772	UT	UT	UT	UT
134.001	0.500	Valid Other Greeble: stimulus that was an untested or no response greeble and that followed a valid cue	GRE	V	1	0.772	UT	UT	UT	UT
136.001	1.000	Valid HC-Hit Cue: valid cue where following object was a subsequent high confidence hit	OBJ	V	1	0.528	HC-HIT	 1.0978	1	2.1652
138.001	0.500	Valid HC-Hit Obj: object that was a subsequent high confidence hit and that followed a valid cue	OBJ	V	1	0.528	HC-HIT	 1.0978	1	2.1652
140.002	1.000	Invalid HC-Hit Cue: invalid cue where following object was a subsequent high confidence hit	OBJ	NV	1	0.857	HC-HIT	 1.3247	1	1.1606
144.002	0.500	Invalid HC-Hit Obj: object that was a subsequent high confidence hit and that followed an invalid cue	OBJ	NV	1	0.857	HC-HIT	 1.3247	1	1.1606
148.002	1.000	Valid HC-Hit Cue: valid cue where following object was a subsequent high confidence hit	OBJ	V	1	0.632	HC-HIT	 1.0775	1	1.4882
152.002	0.500	Valid HC-Hit Obj: object that was a subsequent high confidence hit and that followed a valid cue	OBJ	V	1	0.632	HC-HIT	 1.0775	1	1.4882
154.001	1.000	Valid HC-Hit Cue: valid cue where following object was a subsequent high confidence hit	OBJ	V	1	0.594	HC-HIT	 1.1992	1	0.84496
158.001	0.500	Valid HC-Hit Obj: object that was a subsequent high confidence hit and that followed a valid cue	OBJ	V	1	0.594	HC-HIT	 1.1992	1	0.84496
160.002	1.000	Invalid LC-Hit Cue: invalid cue where following object was a subsequent low confidence hit	OBJ	NV	1	0.678	LC-HIT	   2.49	0	1.0721
162.002	0.500	Invalid LC-Hit Obj: object that was a subsequent low confidence hit and that followed an invalid cue	OBJ	NV	1	0.678	LC-HIT	   2.49	0	1.0721
168.002	1.000	Valid LC-Hit Cue: valid cue where following object was a subsequent low confidence hit	OBJ	V	1	0.526	LC-HIT	 3.2415	0	2.4203
170.002	0.500	Valid LC-Hit Obj: object that was a subsequent low confidence hit and that followed a valid cue	OBJ	V	1	0.526	LC-HIT	 3.2415	0	2.4203
172.001	1.000	Valid HC-Hit Cue: valid cue where following object was a subsequent high confidence hit	OBJ	V	1	0.608	HC-HIT	 1.2213	1	1.8184
176.001	0.500	Valid HC-Hit Obj: object that was a subsequent high confidence hit and that followed a valid cue	OBJ	V	1	0.608	HC-HIT	 1.2213	1	1.8184
180.001	1.000	Valid Other Greeble Cue: valid cue where following stimulus was an untested or no response greeble	GRE	V	1	0.626	UT	UT	UT	UT
182.001	0.500	Valid Other Greeble: stimulus that was an untested or no response greeble and that followed a valid cue	GRE	V	1	0.626	UT	UT	UT	UT
184.002	1.000	Valid Miss Cue: valid cue where following object was a subsequent miss	OBJ	V	1	0.613	LC-MISS	 2.7112	UT	UT
186.002	0.500	Valid Miss Obj: object that was a subsequent miss and that followed a valid cue	OBJ	V	1	0.613	LC-MISS	 2.7112	UT	UT
190.002	1.000	Valid Other Greeble Cue: valid cue where following stimulus was an untested or no response greeble	GRE	V	1	0.654	UT	UT	UT	UT
194.002	0.500	Valid Other Greeble: stimulus that was an untested or no response greeble and that followed a valid cue	GRE	V	1	0.654	UT	UT	UT	UT
196.001	1.000	Valid Other Greeble Cue: valid cue where following stimulus was an untested or no response greeble	GRE	V	1	0.654	UT	UT	UT	UT
200.001	0.500	Valid Other Greeble: stimulus that was an untested or no response greeble and that followed a valid cue	GRE	V	1	0.654	UT	UT	UT	UT
202.001	1.000	Invalid Miss Cue: invalid cue where following object was a subsequent miss	OBJ	NV	1	0.905	LC-MISS	 2.0977	UT	UT
206.001	0.500	Invalid Miss Obj: object that was a subsequent miss and that followed an invalid cue	OBJ	NV	1	0.905	LC-MISS	 2.0977	UT	UT
208.002	1.000	Valid Other Greeble Cue: valid cue where following stimulus was an untested or no response greeble	GRE	V	1	0.656	UT	UT	UT	UT
214.002	0.500	Valid Other Greeble: stimulus that was an untested or no response greeble and that followed a valid cue	GRE	V	1	0.656	UT	UT	UT	UT
216.001	1.000	Valid HC-Hit Cue: valid cue where following object was a subsequent high confidence hit	OBJ	V	1	0.586	HC-HIT	 2.3147	0	1.9121
220.001	0.500	Valid HC-Hit Obj: object that was a subsequent high confidence hit and that followed a valid cue	OBJ	V	1	0.586	HC-HIT	 2.3147	0	1.9121
222.001	1.000	Valid HC-Hit Cue: valid cue where following object was a subsequent high confidence hit	OBJ	V	1	0.622	HC-HIT	 1.3585	1	0.67728
224.001	0.500	Valid HC-Hit Obj: object that was a subsequent high confidence hit and that followed a valid cue	OBJ	V	1	0.622	HC-HIT	 1.3585	1	0.67728
226.002	1.000	Invalid Other Greeble Cue: invalid cue where following stimulus was an untested or no response greeble	GRE	NV	1	0.758	UT	UT	UT	UT
232.002	0.500	Invalid Other Greeble: stimulus that was an untested or no response greeble and that followed a invalid cue	GRE	NV	1	0.758	UT	UT	UT	UT
234.001	1.000	Valid Miss Cue: valid cue where following object was a subsequent miss	OBJ	V	1	0.584	HC-MISS	 2.1197	UT	UT
236.001	0.500	Valid Miss Obj: object that was a subsequent miss and that followed a valid cue	OBJ	V	1	0.584	HC-MISS	 2.1197	UT	UT
238.001	1.000	Valid Miss Cue: valid cue where following object was a subsequent miss	OBJ	V	1	0.602	HC-MISS	 2.2902	UT	UT
242.001	0.500	Valid Miss Obj: object that was a subsequent miss and that followed a valid cue	OBJ	V	1	0.602	HC-MISS	 2.2902	UT	UT
244.001	1.000	Valid Other Greeble Cue: valid cue where following stimulus was an untested or no response greeble	GRE	V	1	0.554	UT	UT	UT	UT
250.001	0.500	Valid Other Greeble: stimulus that was an untested or no response greeble and that followed a valid cue	GRE	V	1	0.554	UT	UT	UT	UT
254.001	1.000	Valid Miss Cue: valid cue where following object was a subsequent miss	OBJ	V	1	0.516	LC-MISS	 2.8101	UT	UT
256.001	0.500	Valid Miss Obj: object that was a subsequent miss and that followed a valid cue	OBJ	V	1	0.516	LC-MISS	 2.8101	UT	UT
258.001	1.000	Valid HC-Hit Cue: valid cue where following object was a subsequent high confidence hit	OBJ	V	1	0.668	HC-HIT	 2.7987	1	2.1426
264.001	0.500	Valid HC-Hit Obj: object that was a subsequent high confidence hit and that followed a valid cue	OBJ	V	1	0.668	HC-HIT	 2.7987	1	2.1426
266.002	1.000	Invalid HC-Hit Cue: invalid cue where following object was a subsequent high confidence hit	OBJ	NV	1	0.774	HC-HIT	 1.7675	1	1.7091
270.002	0.500	Invalid HC-Hit Obj: object that was a subsequent high confidence hit and that followed an invalid cue	OBJ	NV	1	0.774	HC-HIT	 1.7675	1	1.7091
272.001	1.000	Invalid Miss Cue: invalid cue where following object was a subsequent miss	OBJ	NV	1	0.564	HC-MISS	 1.7014	UT	UT
278.001	0.500	Invalid Miss Obj: object that was a subsequent miss and that followed an invalid cue	OBJ	NV	1	0.564	HC-MISS	 1.7014	UT	UT
282.001	1.000	Valid LC-Hit Cue: valid cue where following object was a subsequent low confidence hit	OBJ	V	1	0.661	LC-HIT	 2.8656	1	2.352
286.001	0.500	Valid LC-Hit Obj: object that was a subsequent low confidence hit and that followed a valid cue	OBJ	V	1	0.661	LC-HIT	 2.8656	1	2.352
288.002	1.000	Valid Other Greeble Cue: valid cue where following stimulus was an untested or no response greeble	GRE	V	1	0.772	UT	UT	UT	UT
294.002	0.500	Valid Other Greeble: stimulus that was an untested or no response greeble and that followed a valid cue	GRE	V	1	0.772	UT	UT	UT	UT
296.001	1.000	Valid Other Greeble Cue: valid cue where following stimulus was an untested or no response greeble	GRE	V	1	0.852	UT	UT	UT	UT
302.001	0.500	Valid Other Greeble: stimulus that was an untested or no response greeble and that followed a valid cue	GRE	V	1	0.852	UT	UT	UT	UT
304.001	1.000	Invalid LC-Hit Cue: invalid cue where following object was a subsequent low confidence hit	OBJ	NV	1	0.635	LC-HIT	 2.3149	1	1.7828
310.001	0.500	Invalid LC-Hit Obj: object that was a subsequent low confidence hit and that followed an invalid cue	OBJ	NV	1	0.635	LC-HIT	 2.3149	1	1.7828
312.000	1.000	Invalid Miss Cue: invalid cue where following object was a subsequent miss	OBJ	NV	1	0.912	HC-MISS	 1.7477	UT	UT
314.000	0.500	Invalid Miss Obj: object that was a subsequent miss and that followed an invalid cue	OBJ	NV	1	0.912	HC-MISS	 1.7477	UT	UT
318.002	1.000	Valid Other Greeble Cue: valid cue where following stimulus was an untested or no response greeble	GRE	V	1	0.679	UT	UT	UT	UT
322.002	0.500	Valid Other Greeble: stimulus that was an untested or no response greeble and that followed a valid cue	GRE	V	1	0.679	UT	UT	UT	UT
324.001	1.000	Valid HC-Hit Cue: valid cue where following object was a subsequent high confidence hit	OBJ	V	1	0.678	HC-HIT	 1.1397	0	2.5489
330.001	0.500	Valid HC-Hit Obj: object that was a subsequent high confidence hit and that followed a valid cue	OBJ	V	1	0.678	HC-HIT	 1.1397	0	2.5489
332.002	1.000	Valid HC-Hit Cue: valid cue where following object was a subsequent high confidence hit	OBJ	V	1	0.614	HC-HIT	 2.4641	1	1.2787
338.002	0.500	Valid HC-Hit Obj: object that was a subsequent high confidence hit and that followed a valid cue	OBJ	V	1	0.614	HC-HIT	 2.4641	1	1.2787
340.001	1.000	Valid LC-Hit Cue: valid cue where following object was a subsequent low confidence hit	OBJ	V	1	0.541	LC-HIT	 2.6309	0	1.5628
346.001	0.500	Valid LC-Hit Obj: object that was a subsequent low confidence hit and that followed a valid cue	OBJ	V	1	0.541	LC-HIT	 2.6309	0	1.5628
348.002	1.000	Valid Other Obj Cue: valid cue where following stimulus was an untested or no response object	OBJ	V	1	0.452	UT	UT	UT	UT
352.002	0.500	Valid Other Obj: stimulus that was an untested or no response object and that followed a valid cue	OBJ	V	1	0.452	UT	UT	UT	UT
354.002	1.000	Valid HC-Hit Cue: valid cue where following object was a subsequent high confidence hit	OBJ	V	1	0.508	HC-HIT	 2.0979	1	3.2178
356.002	0.500	Valid HC-Hit Obj: object that was a subsequent high confidence hit and that followed a valid cue	OBJ	V	1	0.508	HC-HIT	 2.0979	1	3.2178
358.002	1.000	Valid Other Greeble Cue: valid cue where following stimulus was an untested or no response greeble	GRE	V	1	0.618	UT	UT	UT	UT
364.002	0.500	Valid Other Greeble: stimulus that was an untested or no response greeble and that followed a valid cue	GRE	V	1	0.618	UT	UT	UT	UT
