onset	duration	trial_type	Object_Cond	Validity_Cond	Obj_Accuracy	Obj_Acc_RT	Subseq_Recog	Subseq_Recog_RT	Subseq_Source_Mem_Acc	Subseq_Source_Mem_Acc_RT
4.0011	1.0	Valid Other Obj Cue: valid cue where following stimulus was an untested or no response object	OBJ	V	1	 0.4975	UT	UT	UT	UT
6.0011	0.5	Valid Other Obj: stimulus that was an untested or no response object and that followed a valid cue	OBJ	V	1	 0.4975	UT	UT	UT	UT
8.0427	1.0	Valid HC-Hit Cue: valid cue where following object was a subsequent high confidence hit	OBJ	V	1	0.43187	HC-HIT	  3.979	1	2.3288
14.0427	0.5	Valid HC-Hit Obj: object that was a subsequent high confidence hit and that followed a valid cue	OBJ	V	1	0.43187	HC-HIT	  3.979	1	2.3288
16.0845	1.0	Valid Other Greeble Cue: valid cue where following stimulus was an untested or no response greeble	GRE	V	NR	NR	UT	UT	UT	UT
20.0845	0.5	Valid Other Greeble: stimulus that was an untested or no response greeble and that followed a valid cue	GRE	V	NR	NR	UT	UT	UT	UT
22.1232	1.0	Valid Miss Cue: valid cue where following object was a subsequent miss	OBJ	V	1	0.46331	LC-MISS	 3.7252	UT	UT
28.1232	0.5	Valid Miss Obj: object that was a subsequent miss and that followed a valid cue	OBJ	V	1	0.46331	LC-MISS	 3.7252	UT	UT
30.1658	1.0	Invalid Miss Cue: invalid cue where following object was a subsequent miss	OBJ	NV	1	0.51599	HC-MISS	 2.8993	UT	UT
32.1658	0.5	Invalid Miss Obj: object that was a subsequent miss and that followed an invalid cue	OBJ	NV	1	0.51599	HC-MISS	 2.8993	UT	UT
36.2028	1.0	Valid Other Greeble Cue: valid cue where following stimulus was an untested or no response greeble	GRE	V	NR	NR	UT	UT	UT	UT
42.2028	0.5	Valid Other Greeble: stimulus that was an untested or no response greeble and that followed a valid cue	GRE	V	NR	NR	UT	UT	UT	UT
44.2469	1.0	Valid Miss Cue: valid cue where following object was a subsequent miss	OBJ	V	1	0.48851	LC-MISS	 1.8457	UT	UT
46.2469	0.5	Valid Miss Obj: object that was a subsequent miss and that followed a valid cue	OBJ	V	1	0.48851	LC-MISS	 1.8457	UT	UT
48.2839	1.0	Invalid Miss Cue: invalid cue where following object was a subsequent miss	OBJ	NV	1	0.51287	HC-MISS	 2.9143	UT	UT
54.2839	0.5	Invalid Miss Obj: object that was a subsequent miss and that followed an invalid cue	OBJ	NV	1	0.51287	HC-MISS	 2.9143	UT	UT
56.3263	1.0	Valid Other Greeble Cue: valid cue where following stimulus was an untested or no response greeble	GRE	V	0	0.51681	UT	UT	UT	UT
58.3263	0.5	Valid Other Greeble: stimulus that was an untested or no response greeble and that followed a valid cue	GRE	V	0	0.51681	UT	UT	UT	UT
60.3637	1.0	Valid LC-Hit Cue: valid cue where following object was a subsequent low confidence hit	OBJ	V	1	0.43398	LC-HIT	 1.8003	0	1.2495
64.3637	0.5	Valid LC-Hit Obj: object that was a subsequent low confidence hit and that followed a valid cue	OBJ	V	1	0.43398	LC-HIT	 1.8003	0	1.2495
66.4035	1.0	Invalid Other Greeble Cue: invalid cue where following stimulus was an untested or no response greeble	GRE	NV	0	0.41689	UT	UT	UT	UT
70.4035	0.5	Invalid Other Greeble: stimulus that was an untested or no response greeble and that followed a invalid cue	GRE	NV	0	0.41689	UT	UT	UT	UT
72.4426	1.0	Valid Other Greeble Cue: valid cue where following stimulus was an untested or no response greeble	GRE	V	0	0.50031	UT	UT	UT	UT
74.4426	0.5	Valid Other Greeble: stimulus that was an untested or no response greeble and that followed a valid cue	GRE	V	0	0.50031	UT	UT	UT	UT
76.4808	1.0	Valid Miss Cue: valid cue where following object was a subsequent miss	OBJ	V	NR	NR	HC-MISS	 2.5072	UT	UT
78.4808	0.5	Valid Miss Obj: object that was a subsequent miss and that followed a valid cue	OBJ	V	NR	NR	HC-MISS	 2.5072	UT	UT
80.5177	1.0	Valid Other Greeble Cue: valid cue where following stimulus was an untested or no response greeble	GRE	V	0	0.46916	UT	UT	UT	UT
86.5177	0.5	Valid Other Greeble: stimulus that was an untested or no response greeble and that followed a valid cue	GRE	V	0	0.46916	UT	UT	UT	UT
88.56	1.0	Valid Miss Cue: valid cue where following object was a subsequent miss	OBJ	V	1	0.55975	LC-MISS	0.76189	UT	UT
92.56	0.5	Valid Miss Obj: object that was a subsequent miss and that followed a valid cue	OBJ	V	1	0.55975	LC-MISS	0.76189	UT	UT
94.5995	1.0	Valid Other Greeble Cue: valid cue where following stimulus was an untested or no response greeble	GRE	V	NR	NR	UT	UT	UT	UT
96.5995	0.5	Valid Other Greeble: stimulus that was an untested or no response greeble and that followed a valid cue	GRE	V	NR	NR	UT	UT	UT	UT
98.6372	1.0	Valid HC-Hit Cue: valid cue where following object was a subsequent high confidence hit	OBJ	V	1	0.47438	HC-HIT	  1.027	1	1.4092
100.6372	0.5	Valid HC-Hit Obj: object that was a subsequent high confidence hit and that followed a valid cue	OBJ	V	1	0.47438	HC-HIT	  1.027	1	1.4092
102.6736	1.0	Valid LC-Hit Cue: valid cue where following object was a subsequent low confidence hit	OBJ	V	1	0.41142	LC-HIT	 2.7044	0	0.90586
106.6736	0.5	Valid LC-Hit Obj: object that was a subsequent low confidence hit and that followed a valid cue	OBJ	V	1	0.41142	LC-HIT	 2.7044	0	0.90586
108.7135	1.0	Valid LC-Hit Cue: valid cue where following object was a subsequent low confidence hit	OBJ	V	1	0.44811	LC-HIT	 2.7314	0	1.2334
114.7135	0.5	Valid LC-Hit Obj: object that was a subsequent low confidence hit and that followed a valid cue	OBJ	V	1	0.44811	LC-HIT	 2.7314	0	1.2334
116.7553	1.0	Invalid Miss Cue: invalid cue where following object was a subsequent miss	OBJ	NV	NR	NR	LC-MISS	0.88063	UT	UT
118.7553	0.5	Invalid Miss Obj: object that was a subsequent miss and that followed an invalid cue	OBJ	NV	NR	NR	LC-MISS	0.88063	UT	UT
120.7926	1.0	Valid Miss Cue: valid cue where following object was a subsequent miss	OBJ	V	1	0.48553	LC-MISS	0.64268	UT	UT
122.7926	0.5	Valid Miss Obj: object that was a subsequent miss and that followed a valid cue	OBJ	V	1	0.48553	LC-MISS	0.64268	UT	UT
124.8298	1.0	Valid Other Greeble Cue: valid cue where following stimulus was an untested or no response greeble	GRE	V	0	 0.4765	UT	UT	UT	UT
130.8298	0.5	Valid Other Greeble: stimulus that was an untested or no response greeble and that followed a valid cue	GRE	V	0	 0.4765	UT	UT	UT	UT
132.8722	1.0	Valid LC-Hit Cue: valid cue where following object was a subsequent low confidence hit	OBJ	V	1	0.49414	LC-HIT	 1.2074	1	0.57884
134.8722	0.5	Valid LC-Hit Obj: object that was a subsequent low confidence hit and that followed a valid cue	OBJ	V	1	0.49414	LC-HIT	 1.2074	1	0.57884
136.9093	1.0	Valid Miss Cue: valid cue where following object was a subsequent miss	OBJ	V	1	0.49786	LC-MISS	0.73915	UT	UT
138.9093	0.5	Valid Miss Obj: object that was a subsequent miss and that followed a valid cue	OBJ	V	1	0.49786	LC-MISS	0.73915	UT	UT
140.9468	1.0	Valid Other Greeble Cue: valid cue where following stimulus was an untested or no response greeble	GRE	V	0	0.46706	UT	UT	UT	UT
142.9468	0.5	Valid Other Greeble: stimulus that was an untested or no response greeble and that followed a valid cue	GRE	V	0	0.46706	UT	UT	UT	UT
144.984	1.0	Invalid Miss Cue: invalid cue where following object was a subsequent miss	OBJ	NV	1	0.54453	LC-MISS	 1.9057	UT	UT
146.984	0.5	Invalid Miss Obj: object that was a subsequent miss and that followed an invalid cue	OBJ	NV	1	0.54453	LC-MISS	 1.9057	UT	UT
153.0221	1.0	Valid LC-Hit Cue: valid cue where following object was a subsequent low confidence hit	OBJ	V	1	0.34579	LC-HIT	 1.6067	1	3.28
157.0221	0.5	Valid LC-Hit Obj: object that was a subsequent low confidence hit and that followed a valid cue	OBJ	V	1	0.34579	LC-HIT	 1.6067	1	3.28
161.066	1.0	Valid Other Greeble Cue: valid cue where following stimulus was an untested or no response greeble	GRE	V	NR	NR	UT	UT	UT	UT
167.06599999999997	0.5	Valid Other Greeble: stimulus that was an untested or no response greeble and that followed a valid cue	GRE	V	NR	NR	UT	UT	UT	UT
169.1095	1.0	Valid LC-Hit Cue: valid cue where following object was a subsequent low confidence hit	OBJ	V	1	0.42921	LC-HIT	 1.2154	0	1.5821
175.1095	0.5	Valid LC-Hit Obj: object that was a subsequent low confidence hit and that followed a valid cue	OBJ	V	1	0.42921	LC-HIT	 1.2154	0	1.5821
177.15200000000002	1.0	Valid LC-Hit Cue: valid cue where following object was a subsequent low confidence hit	OBJ	V	1	0.53621	LC-HIT	 1.7456	1	0.63569
181.15200000000002	0.5	Valid LC-Hit Obj: object that was a subsequent low confidence hit and that followed a valid cue	OBJ	V	1	0.53621	LC-HIT	 1.7456	1	0.63569
183.1912	1.0	Valid Other Obj Cue: valid cue where following stimulus was an untested or no response object	OBJ	V	1	0.44373	UT	UT	UT	UT
189.1912	0.5	Valid Other Obj: stimulus that was an untested or no response object and that followed a valid cue	OBJ	V	1	0.44373	UT	UT	UT	UT
191.2335	1.0	Valid Other Greeble Cue: valid cue where following stimulus was an untested or no response greeble	GRE	V	0	0.48649	UT	UT	UT	UT
193.2335	0.5	Valid Other Greeble: stimulus that was an untested or no response greeble and that followed a valid cue	GRE	V	0	0.48649	UT	UT	UT	UT
195.2708	1.0	Invalid Miss Cue: invalid cue where following object was a subsequent miss	OBJ	NV	1	0.41436	LC-MISS	 1.4008	UT	UT
199.2708	0.5	Invalid Miss Obj: object that was a subsequent miss and that followed an invalid cue	OBJ	NV	1	0.41436	LC-MISS	 1.4008	UT	UT
201.3098	1.0	Valid Other Obj Cue: valid cue where following stimulus was an untested or no response object	OBJ	V	1	0.44667	UT	UT	UT	UT
205.3098	0.5	Valid Other Obj: stimulus that was an untested or no response object and that followed a valid cue	OBJ	V	1	0.44667	UT	UT	UT	UT
207.3497	1.0	Valid Other Greeble Cue: valid cue where following stimulus was an untested or no response greeble	GRE	V	0	0.46628	UT	UT	UT	UT
209.3497	0.5	Valid Other Greeble: stimulus that was an untested or no response greeble and that followed a valid cue	GRE	V	0	0.46628	UT	UT	UT	UT
211.387	1.0	Valid Other Greeble Cue: valid cue where following stimulus was an untested or no response greeble	GRE	V	0	0.42394	UT	UT	UT	UT
217.387	0.5	Valid Other Greeble: stimulus that was an untested or no response greeble and that followed a valid cue	GRE	V	0	0.42394	UT	UT	UT	UT
219.4285	1.0	Valid HC-Hit Cue: valid cue where following object was a subsequent high confidence hit	OBJ	V	1	0.39944	HC-HIT	 1.9947	1	0.66519
223.4285	0.5	Valid HC-Hit Obj: object that was a subsequent high confidence hit and that followed a valid cue	OBJ	V	1	0.39944	HC-HIT	 1.9947	1	0.66519
225.4687	1.0	Valid LC-Hit Cue: valid cue where following object was a subsequent low confidence hit	OBJ	V	0	0.42515	LC-HIT	 1.9276	1	1.5079
229.4687	0.5	Valid LC-Hit Obj: object that was a subsequent low confidence hit and that followed a valid cue	OBJ	V	0	0.42515	LC-HIT	 1.9276	1	1.5079
231.5075	1.0	Valid Miss Cue: valid cue where following object was a subsequent miss	OBJ	V	1	0.44958	LC-MISS	 1.8532	UT	UT
235.5075	0.5	Valid Miss Obj: object that was a subsequent miss and that followed a valid cue	OBJ	V	1	0.44958	LC-MISS	 1.8532	UT	UT
241.5482	1.0	Invalid LC-Hit Cue: invalid cue where following object was a subsequent low confidence hit	OBJ	NV	1	 0.5258	LC-HIT	 1.2789	0	0.54239
247.5482	0.5	Invalid LC-Hit Obj: object that was a subsequent low confidence hit and that followed an invalid cue	OBJ	NV	1	 0.5258	LC-HIT	 1.2789	0	0.54239
251.5942	1.0	Valid HC-Hit Cue: valid cue where following object was a subsequent high confidence hit	OBJ	V	1	 0.4104	HC-HIT	  1.108	0	2.2039
253.5942	0.5	Valid HC-Hit Obj: object that was a subsequent high confidence hit and that followed a valid cue	OBJ	V	1	 0.4104	HC-HIT	  1.108	0	2.2039
257.6338	1.0	Valid Miss Cue: valid cue where following object was a subsequent miss	OBJ	V	1	0.46311	LC-MISS	 1.3263	UT	UT
263.6338	0.5	Valid Miss Obj: object that was a subsequent miss and that followed a valid cue	OBJ	V	1	0.46311	LC-MISS	 1.3263	UT	UT
265.6769	1.0	Valid Miss Cue: valid cue where following object was a subsequent miss	OBJ	V	1	0.39912	HC-MISS	0.78131	UT	UT
269.6769	0.5	Valid Miss Obj: object that was a subsequent miss and that followed a valid cue	OBJ	V	1	0.39912	HC-MISS	0.78131	UT	UT
271.7164	1.0	Valid Other Greeble Cue: valid cue where following stimulus was an untested or no response greeble	GRE	V	NR	NR	UT	UT	UT	UT
275.7164	0.5	Valid Other Greeble: stimulus that was an untested or no response greeble and that followed a valid cue	GRE	V	NR	NR	UT	UT	UT	UT
277.7567	1.0	Invalid Miss Cue: invalid cue where following object was a subsequent miss	OBJ	NV	NR	NR	LC-MISS	 1.4958	UT	UT
281.7567	0.5	Invalid Miss Obj: object that was a subsequent miss and that followed an invalid cue	OBJ	NV	NR	NR	LC-MISS	 1.4958	UT	UT
285.7957	1.0	Valid HC-Hit Cue: valid cue where following object was a subsequent high confidence hit	OBJ	V	1	0.42873	HC-HIT	 1.2234	1	0.99446
291.7957	0.5	Valid HC-Hit Obj: object that was a subsequent high confidence hit and that followed a valid cue	OBJ	V	1	0.42873	HC-HIT	 1.2234	1	0.99446
293.8398	1.0	Valid Other Obj Cue: valid cue where following stimulus was an untested or no response object	OBJ	V	1	0.41073	UT	UT	UT	UT
299.8398	0.5	Valid Other Obj: stimulus that was an untested or no response object and that followed a valid cue	OBJ	V	1	0.41073	UT	UT	UT	UT
301.8828	1.0	Valid HC-Hit Cue: valid cue where following object was a subsequent high confidence hit	OBJ	V	1	0.37091	HC-HIT	0.85907	1	2.2222
305.8828	0.5	Valid HC-Hit Obj: object that was a subsequent high confidence hit and that followed a valid cue	OBJ	V	1	0.37091	HC-HIT	0.85907	1	2.2222
309.9216	1.0	Valid LC-Hit Cue: valid cue where following object was a subsequent low confidence hit	OBJ	V	1	0.42709	LC-HIT	 2.3493	0	1.1125
311.9216	0.5	Valid LC-Hit Obj: object that was a subsequent low confidence hit and that followed a valid cue	OBJ	V	1	0.42709	LC-HIT	 2.3493	0	1.1125
315.961	1.0	Valid Other Greeble Cue: valid cue where following stimulus was an untested or no response greeble	GRE	V	0	0.36118	UT	UT	UT	UT
319.961	0.5	Valid Other Greeble: stimulus that was an untested or no response greeble and that followed a valid cue	GRE	V	0	0.36118	UT	UT	UT	UT
322.0034	1.0	Valid Other Obj Cue: valid cue where following stimulus was an untested or no response object	OBJ	V	1	0.39151	UT	UT	UT	UT
328.0034	0.5	Valid Other Obj: stimulus that was an untested or no response object and that followed a valid cue	OBJ	V	1	0.39151	UT	UT	UT	UT
332.0443	1.0	Invalid Miss Cue: invalid cue where following object was a subsequent miss	OBJ	NV	1	0.45415	LC-MISS	 1.1103	UT	UT
336.0443	0.5	Invalid Miss Obj: object that was a subsequent miss and that followed an invalid cue	OBJ	NV	1	0.45415	LC-MISS	 1.1103	UT	UT
338.0861	1.0	Valid Miss Cue: valid cue where following object was a subsequent miss	OBJ	V	1	0.57088	HC-MISS	 1.3165	UT	UT
340.0861	0.5	Valid Miss Obj: object that was a subsequent miss and that followed a valid cue	OBJ	V	1	0.57088	HC-MISS	 1.3165	UT	UT
342.124	1.0	Invalid Other Greeble Cue: invalid cue where following stimulus was an untested or no response greeble	GRE	NV	0	0.55289	UT	UT	UT	UT
348.124	0.5	Invalid Other Greeble: stimulus that was an untested or no response greeble and that followed a invalid cue	GRE	NV	0	0.55289	UT	UT	UT	UT
352.1663	1.0	Valid LC-Hit Cue: valid cue where following object was a subsequent low confidence hit	OBJ	V	1	 0.3942	LC-HIT	 1.4186	0	0.5815
358.1663	0.5	Valid LC-Hit Obj: object that was a subsequent low confidence hit and that followed a valid cue	OBJ	V	1	 0.3942	LC-HIT	 1.4186	0	0.5815
362.2096	1.0	Valid Miss Cue: valid cue where following object was a subsequent miss	OBJ	V	1	0.45602	LC-MISS	 3.0282	UT	UT
366.2096	0.5	Valid Miss Obj: object that was a subsequent miss and that followed a valid cue	OBJ	V	1	0.45602	LC-MISS	 3.0282	UT	UT
