onset	duration	trial_number	event_type	executed_movement	correct_movement	shown_stimulus	reported_gs	correct_gs	included_trial	reason_for_exclusion
12.9799999999814	22.02	1	stimulus	n/a	n/a	white X	n/a	n/a	0	test trial
35	7.87447129999055	1	stimulus	n/a	n/a	QOGOCQQQ	1	1	0	test trial
35.5731842999812	0	1	finger press	2	2	n/a	n/a	n/a	0	test trial
36.2215374999796	0	1	finger press	1	1	n/a	n/a	n/a	0	test trial
36.7970666000037	0	1	finger press	2	2	n/a	n/a	n/a	0	test trial
37.4691196000203	0	1	finger press	3	3	n/a	n/a	n/a	0	test trial
38.196912400017	0	1	finger press	2	2	n/a	n/a	n/a	0	test trial
38.9251178000122	0	1	finger press	1	1	n/a	n/a	n/a	0	test trial
39.5568993000197	0	1	finger press	3	3	n/a	n/a	n/a	0	test trial
40.2129386999877	0	1	finger press	2	2	n/a	n/a	n/a	0	test trial
41.2850673000212	0	1	finger press	4	4	n/a	n/a	n/a	0	test trial
41.9415168999694	0	1	finger press	2	2	n/a	n/a	n/a	0	test trial
42.6526855999837	0	1	finger press	4	4	n/a	n/a	n/a	0	test trial
42.8800000000047	5	1	stimulus	n/a	n/a	white X	n/a	n/a	0	test trial
55.5999999999767	23	2	stimulus	n/a	n/a	white X	n/a	n/a	1	n/a
78.6040548000019	10.1721524000168	2	stimulus	n/a	n/a	OGOOOCCG	2	2	1	n/a
79.1730989000062	0	2	finger press	2	2	n/a	n/a	n/a	1	n/a
79.8215853999718	0	2	finger press	1	1	n/a	n/a	n/a	1	n/a
80.4050597000169	0	2	finger press	2	2	n/a	n/a	n/a	1	n/a
81.1090903999866	0	2	finger press	3	3	n/a	n/a	n/a	1	n/a
81.7172174999723	0	2	finger press	2	2	n/a	n/a	n/a	1	n/a
82.3491364999791	0	2	finger press	1	1	n/a	n/a	n/a	1	n/a
83.0930863000103	0	2	finger press	3	3	n/a	n/a	n/a	1	n/a
83.7250613999786	0	2	finger press	2	2	n/a	n/a	n/a	1	n/a
84.4451627000235	0	2	finger press	4	4	n/a	n/a	n/a	1	n/a
85.1091858000145	0	2	finger press	2	2	n/a	n/a	n/a	1	n/a
85.7731431999709	0	2	finger press	4	4	n/a	n/a	n/a	1	n/a
86.4531839999836	0	2	finger press	1	1	n/a	n/a	n/a	1	n/a
88.7800000000279	5	2	stimulus	n/a	n/a	white X	n/a	n/a	1	n/a
99.5200000000186	23.02	3	stimulus	n/a	n/a	white X	n/a	n/a	1	n/a
122.535369799996	10.9549741999945	3	stimulus	n/a	n/a	OQGCGCGG	4	4	1	n/a
123.109134499973	0	3	finger press	2	2	n/a	n/a	n/a	1	n/a
123.791457200015	0	3	finger press	1	1	n/a	n/a	n/a	1	n/a
124.453161599988	0	3	finger press	2	2	n/a	n/a	n/a	1	n/a
125.181615300011	0	3	finger press	3	3	n/a	n/a	n/a	1	n/a
125.821200400009	0	3	finger press	2	2	n/a	n/a	n/a	1	n/a
126.517116400006	0	3	finger press	1	1	n/a	n/a	n/a	1	n/a
127.173131600022	0	3	finger press	3	3	n/a	n/a	n/a	1	n/a
127.805201200012	0	3	finger press	2	2	n/a	n/a	n/a	1	n/a
128.549096699979	0	3	finger press	4	4	n/a	n/a	n/a	1	n/a
129.13326989999	0	3	finger press	2	2	n/a	n/a	n/a	1	n/a
129.916982800001	0	3	finger press	4	4	n/a	n/a	n/a	1	n/a
130.709180100006	0	3	finger press	1	1	n/a	n/a	n/a	1	n/a
133.479999999981	5	3	stimulus	n/a	n/a	white X	n/a	n/a	1	n/a
143.799999999988	22	4	stimulus	n/a	n/a	white X	n/a	n/a	1	n/a
165.804304099991	9.47497490001842	4	stimulus	n/a	n/a	GOOCGCOQ	2	2	1	n/a
166.317085599992	0	4	finger press	2	2	n/a	n/a	n/a	1	n/a
167.029187600012	0	4	finger press	1	1	n/a	n/a	n/a	1	n/a
167.661295400001	0	4	finger press	2	2	n/a	n/a	n/a	1	n/a
168.365036099975	0	4	finger press	3	3	n/a	n/a	n/a	1	n/a
169.005265299988	0	4	finger press	2	2	n/a	n/a	n/a	1	n/a
169.685090999992	0	4	finger press	1	1	n/a	n/a	n/a	1	n/a
170.437170999998	0	4	finger press	3	3	n/a	n/a	n/a	1	n/a
171.117215199978	0	4	finger press	2	2	n/a	n/a	n/a	1	n/a
171.845328999974	0	4	finger press	4	4	n/a	n/a	n/a	1	n/a
172.509209299984	0	4	finger press	2	2	n/a	n/a	n/a	1	n/a
173.229463299969	0	4	finger press	4	4	n/a	n/a	n/a	1	n/a
173.893209000002	0	4	finger press	1	1	n/a	n/a	n/a	1	n/a
175.280000000028	5	4	stimulus	n/a	n/a	white X	n/a	n/a	1	n/a
184.280000000028	24.02	5	stimulus	n/a	n/a	white X	n/a	n/a	0	erroneous trial
208.303453299974	9.31177010003012	5	stimulus	n/a	n/a	GGQGQGCC	2	4	0	erroneous trial
208.877314499987	0	5	finger press	2	2	n/a	n/a	n/a	0	erroneous trial
209.517446400016	0	5	finger press	1	1	n/a	n/a	n/a	0	erroneous trial
210.141345300013	0	5	finger press	2	2	n/a	n/a	n/a	0	erroneous trial
210.797338599979	0	5	finger press	3	3	n/a	n/a	n/a	0	erroneous trial
211.429179299972	0	5	finger press	2	2	n/a	n/a	n/a	0	erroneous trial
212.149272400013	0	5	finger press	1	1	n/a	n/a	n/a	0	erroneous trial
215.645214100019	0	5	finger press	4	3	n/a	n/a	n/a	0	erroneous trial
216.341255099978	0	5	finger press	2	2	n/a	n/a	n/a	0	erroneous trial
216.877265200019	0	5	finger press	4	4	n/a	n/a	n/a	0	erroneous trial
217.341209999984	0	5	finger press	1	2	n/a	n/a	n/a	0	erroneous trial
217.619999999995	5	5	stimulus	n/a	n/a	white X	n/a	n/a	0	erroneous trial
227.5	23.02	6	stimulus	n/a	n/a	white X	n/a	n/a	1	n/a
250.519934299984	10.34845520003	6	stimulus	n/a	n/a	GQCGCOOO	2	2	1	n/a
251.157393199974	0	6	finger press	2	2	n/a	n/a	n/a	1	n/a
251.821858600015	0	6	finger press	1	1	n/a	n/a	n/a	1	n/a
252.437439000001	0	6	finger press	2	2	n/a	n/a	n/a	1	n/a
253.085675799986	0	6	finger press	3	3	n/a	n/a	n/a	1	n/a
253.701398500009	0	6	finger press	2	2	n/a	n/a	n/a	1	n/a
254.381401400024	0	6	finger press	1	1	n/a	n/a	n/a	1	n/a
255.061451099988	0	6	finger press	3	3	n/a	n/a	n/a	1	n/a
255.693308999995	0	6	finger press	2	2	n/a	n/a	n/a	1	n/a
256.589314899989	0	6	finger press	4	4	n/a	n/a	n/a	1	n/a
257.213293000008	0	6	finger press	2	2	n/a	n/a	n/a	1	n/a
258.005303699989	0	6	finger press	4	4	n/a	n/a	n/a	1	n/a
258.637350699981	0	6	finger press	1	1	n/a	n/a	n/a	1	n/a
260.859999999986	5	6	stimulus	n/a	n/a	white X	n/a	n/a	1	n/a
270.940000000002	23	7	stimulus	n/a	n/a	white X	n/a	n/a	1	n/a
293.948308799998	10.450468999974	7	stimulus	n/a	n/a	COGGOQGO	3	3	1	n/a
294.565430200018	0	7	finger press	2	2	n/a	n/a	n/a	1	n/a
295.237401699997	0	7	finger press	1	1	n/a	n/a	n/a	1	n/a
295.861449400021	0	7	finger press	2	2	n/a	n/a	n/a	1	n/a
296.581422500021	0	7	finger press	3	3	n/a	n/a	n/a	1	n/a
297.221343100013	0	7	finger press	2	2	n/a	n/a	n/a	1	n/a
297.997862900025	0	7	finger press	1	1	n/a	n/a	n/a	1	n/a
298.685407700017	0	7	finger press	3	3	n/a	n/a	n/a	1	n/a
299.357340199989	0	7	finger press	2	2	n/a	n/a	n/a	1	n/a
300.021413200011	0	7	finger press	4	4	n/a	n/a	n/a	1	n/a
300.693373400019	0	7	finger press	2	2	n/a	n/a	n/a	1	n/a
301.381499300012	0	7	finger press	4	4	n/a	n/a	n/a	1	n/a
302.077389899991	0	7	finger press	1	1	n/a	n/a	n/a	1	n/a
304.400000000023	5	7	stimulus	n/a	n/a	white X	n/a	n/a	1	n/a
313.479999999981	23	8	stimulus	n/a	n/a	white X	n/a	n/a	1	n/a
336.484507000016	8.78251920000184	8	stimulus	n/a	n/a	GCQOGOOO	2	2	1	n/a
337.229592000018	0	8	finger press	2	2	n/a	n/a	n/a	1	n/a
337.8863059	0	8	finger press	1	1	n/a	n/a	n/a	1	n/a
338.509421999974	0	8	finger press	2	2	n/a	n/a	n/a	1	n/a
339.197568800009	0	8	finger press	3	3	n/a	n/a	n/a	1	n/a
339.781465800013	0	8	finger press	2	2	n/a	n/a	n/a	1	n/a
340.493386799993	0	8	finger press	1	1	n/a	n/a	n/a	1	n/a
341.157433999993	0	8	finger press	3	3	n/a	n/a	n/a	1	n/a
341.797505200026	0	8	finger press	2	2	n/a	n/a	n/a	1	n/a
342.477820099972	0	8	finger press	4	4	n/a	n/a	n/a	1	n/a
343.101479300007	0	8	finger press	2	2	n/a	n/a	n/a	1	n/a
343.829561799997	0	8	finger press	4	4	n/a	n/a	n/a	1	n/a
344.485464799975	0	8	finger press	1	1	n/a	n/a	n/a	1	n/a
345.260000000009	5	8	stimulus	n/a	n/a	white X	n/a	n/a	1	n/a
354.140000000014	21.02	9	stimulus	n/a	n/a	white X	n/a	n/a	0	erroneous trial
375.152669699979	9.90125150000677	9	stimulus	n/a	n/a	GGQOQQQC	2	2	0	erroneous trial
375.805171600019	0	9	finger press	2	2	n/a	n/a	n/a	0	erroneous trial
376.429186300025	0	9	finger press	1	1	n/a	n/a	n/a	0	erroneous trial
377.109470799973	0	9	finger press	2	2	n/a	n/a	n/a	0	erroneous trial
377.717621400021	0	9	finger press	3	3	n/a	n/a	n/a	0	erroneous trial
378.3734864	0	9	finger press	2	2	n/a	n/a	n/a	0	erroneous trial
379.173529200023	0	9	finger press	4	1	n/a	n/a	n/a	0	erroneous trial
379.885644100024	0	9	finger press	2	3	n/a	n/a	n/a	0	erroneous trial
380.549610899994	0	9	finger press	4	2	n/a	n/a	n/a	0	erroneous trial
381.301873399992	0	9	finger press	1	4	n/a	n/a	n/a	0	erroneous trial
385.059999999998	5	9	stimulus	n/a	n/a	white X	n/a	n/a	0	erroneous trial
394.099999999977	22	10	stimulus	n/a	n/a	white X	n/a	n/a	1	n/a
416.106228700024	10.0894599999883	10	stimulus	n/a	n/a	OOGCOGCQ	2	2	1	n/a
416.877490999992	0	10	finger press	2	2	n/a	n/a	n/a	1	n/a
417.533576800022	0	10	finger press	1	1	n/a	n/a	n/a	1	n/a
418.149529099988	0	10	finger press	2	2	n/a	n/a	n/a	1	n/a
418.821660600021	0	10	finger press	3	3	n/a	n/a	n/a	1	n/a
419.461700799991	0	10	finger press	2	2	n/a	n/a	n/a	1	n/a
420.157652799971	0	10	finger press	1	1	n/a	n/a	n/a	1	n/a
420.805545800016	0	10	finger press	3	3	n/a	n/a	n/a	1	n/a
421.429528900015	0	10	finger press	2	2	n/a	n/a	n/a	1	n/a
422.126087900018	0	10	finger press	4	4	n/a	n/a	n/a	1	n/a
422.765783299983	0	10	finger press	2	2	n/a	n/a	n/a	1	n/a
423.493847900012	0	10	finger press	4	4	n/a	n/a	n/a	1	n/a
424.165625899972	0	10	finger press	1	1	n/a	n/a	n/a	1	n/a
426.200000000012	5	10	stimulus	n/a	n/a	white X	n/a	n/a	1	n/a
436.799999999988	22	11	stimulus	n/a	n/a	white X	n/a	n/a	1	n/a
458.804684199975	10.7158701000153	11	stimulus	n/a	n/a	CGGGCQGQ	4	4	1	n/a
459.357540600002	0	11	finger press	2	2	n/a	n/a	n/a	1	n/a
460.069636099972	0	11	finger press	1	1	n/a	n/a	n/a	1	n/a
460.693657699972	0	11	finger press	2	2	n/a	n/a	n/a	1	n/a
461.365933199995	0	11	finger press	3	3	n/a	n/a	n/a	1	n/a
461.981841299974	0	11	finger press	2	2	n/a	n/a	n/a	1	n/a
462.637656499981	0	11	finger press	1	1	n/a	n/a	n/a	1	n/a
463.317568600003	0	11	finger press	3	3	n/a	n/a	n/a	1	n/a
463.94167749997	0	11	finger press	2	2	n/a	n/a	n/a	1	n/a
464.661673200026	0	11	finger press	4	4	n/a	n/a	n/a	1	n/a
465.277698500024	0	11	finger press	2	2	n/a	n/a	n/a	1	n/a
465.933714199986	0	11	finger press	4	4	n/a	n/a	n/a	1	n/a
466.621721400006	0	11	finger press	1	1	n/a	n/a	n/a	1	n/a
469.520000000019	5	11	stimulus	n/a	n/a	white X	n/a	n/a	1	n/a
