onset	duration	trial_type	Response	Stimulus	response_time
4.817	0.200	auditory standard stimulus presentation	n/a	n/a	n/a
7.827	0.200	auditory standard stimulus presentation	n/a	n/a	n/a
10.873	0.200	auditory standard stimulus presentation	0.000	standard	n/a
13.123	0.200	auditory standard stimulus presentation	0.000	standard	n/a
16.150	0.200	auditory standard stimulus presentation	0.000	standard	n/a
18.599	0.200	auditory standard stimulus presentation	0.000	standard	n/a
20.850	0.370	behavioral response time following auditory oddball stimulus onset	1.000	target	n/a
20.850	0.200	auditory oddball stimulus presentation	1.000	target	n/a
23.977	0.200	auditory standard stimulus presentation	0.000	standard	n/a
27.004	0.200	auditory standard stimulus presentation	0.000	standard	n/a
30.050	0.200	auditory standard stimulus presentation	0.000	standard	n/a
32.499	0.200	auditory oddball stimulus presentation	1.000	target	n/a
32.499	0.477	behavioral response time following auditory oddball stimulus onset	1.000	target	n/a
35.145	0.200	auditory standard stimulus presentation	0.000	standard	n/a
37.579	0.200	auditory standard stimulus presentation	0.000	standard	n/a
40.258	0.200	auditory oddball stimulus presentation	1.000	target	n/a
40.258	0.347	behavioral response time following auditory oddball stimulus onset	1.000	target	n/a
42.311	0.200	auditory standard stimulus presentation	0.000	standard	n/a
44.544	0.200	auditory standard stimulus presentation	0.000	standard	n/a
46.579	0.373	behavioral response time following auditory oddball stimulus onset	1.000	target	n/a
46.579	0.200	auditory oddball stimulus presentation	1.000	target	n/a
49.226	0.200	auditory standard stimulus presentation	0.000	standard	n/a
51.659	0.200	auditory standard stimulus presentation	0.000	standard	n/a
54.522	0.200	auditory oddball stimulus presentation	1.000	target	n/a
54.522	0.328	behavioral response time following auditory oddball stimulus onset	1.000	target	n/a
57.550	0.312	behavioral response time following auditory oddball stimulus onset	1.000	target	n/a
57.550	0.200	auditory oddball stimulus presentation	1.000	target	n/a
60.379	0.200	auditory standard stimulus presentation	0.000	standard	n/a
62.415	0.200	auditory standard stimulus presentation	0.000	standard	n/a
65.260	0.200	auditory oddball stimulus presentation	1.000	target	n/a
65.260	0.323	behavioral response time following auditory oddball stimulus onset	1.000	target	n/a
68.107	0.462	behavioral response time following auditory oddball stimulus onset	1.000	target	n/a
68.107	0.200	auditory oddball stimulus presentation	1.000	target	n/a
70.555	0.200	auditory standard stimulus presentation	0.000	standard	n/a
72.805	0.200	auditory standard stimulus presentation	0.000	standard	n/a
75.651	0.200	auditory standard stimulus presentation	0.000	standard	n/a
77.704	0.200	auditory standard stimulus presentation	0.000	standard	n/a
80.350	0.200	auditory standard stimulus presentation	0.000	standard	n/a
82.800	0.200	auditory oddball stimulus presentation	1.000	target	n/a
82.800	0.296	behavioral response time following auditory oddball stimulus onset	1.000	target	n/a
84.835	0.200	auditory oddball stimulus presentation	1.000	target	n/a
84.835	0.364	behavioral response time following auditory oddball stimulus onset	1.000	target	n/a
87.069	0.200	auditory standard stimulus presentation	0.000	standard	n/a
89.303	0.200	auditory standard stimulus presentation	0.000	standard	n/a
91.949	0.200	auditory standard stimulus presentation	0.000	standard	n/a
94.597	0.323	behavioral response time following auditory oddball stimulus onset	1.000	target	n/a
94.597	0.200	auditory oddball stimulus presentation	1.000	target	n/a
96.848	0.200	auditory standard stimulus presentation	0.000	standard	n/a
99.909	0.200	auditory standard stimulus presentation	0.000	standard	n/a
102.953	0.200	auditory standard stimulus presentation	0.000	standard	n/a
106.014	0.200	auditory standard stimulus presentation	0.000	standard	n/a
108.661	0.200	auditory standard stimulus presentation	0.000	standard	n/a
110.713	0.200	auditory standard stimulus presentation	0.000	standard	n/a
113.560	0.200	auditory standard stimulus presentation	0.000	standard	n/a
116.603	0.200	auditory standard stimulus presentation	0.000	standard	n/a
119.268	0.200	auditory standard stimulus presentation	0.000	standard	n/a
122.329	0.200	auditory standard stimulus presentation	0.000	standard	n/a
124.761	0.328	behavioral response time following auditory oddball stimulus onset	1.000	target	n/a
124.761	0.200	auditory oddball stimulus presentation	1.000	target	n/a
127.591	0.200	auditory standard stimulus presentation	0.000	standard	n/a
130.454	0.602	behavioral response time following auditory oddball stimulus onset	1.000	target	n/a
130.454	0.200	auditory oddball stimulus presentation	1.000	target	n/a
132.886	0.200	auditory oddball stimulus presentation	1.000	target	n/a
132.886	0.332	behavioral response time following auditory oddball stimulus onset	1.000	target	n/a
135.135	0.200	auditory standard stimulus presentation	0.000	standard	n/a
137.387	0.200	auditory standard stimulus presentation	0.000	standard	n/a
140.231	0.200	auditory standard stimulus presentation	0.000	standard	n/a
143.095	0.200	auditory standard stimulus presentation	0.000	standard	n/a
145.362	0.200	auditory oddball stimulus presentation	1.000	target	n/a
145.362	0.383	behavioral response time following auditory oddball stimulus onset	1.000	target	n/a
147.596	0.200	auditory oddball stimulus presentation	1.000	target	n/a
147.596	0.331	behavioral response time following auditory oddball stimulus onset	1.000	target	n/a
150.045	0.200	auditory standard stimulus presentation	0.000	standard	n/a
152.907	0.200	auditory oddball stimulus presentation	1.000	target	n/a
152.907	0.521	behavioral response time following auditory oddball stimulus onset	1.000	target	n/a
154.941	0.200	auditory standard stimulus presentation	0.000	standard	n/a
158.003	0.200	auditory standard stimulus presentation	0.000	standard	n/a
160.435	0.200	auditory standard stimulus presentation	0.000	standard	n/a
163.479	0.200	auditory standard stimulus presentation	0.000	standard	n/a
166.325	0.200	auditory standard stimulus presentation	0.000	standard	n/a
168.974	0.200	auditory standard stimulus presentation	0.000	standard	n/a
172.017	0.330	behavioral response time following auditory oddball stimulus onset	1.000	target	n/a
172.017	0.200	auditory oddball stimulus presentation	1.000	target	n/a
174.649	0.200	auditory standard stimulus presentation	0.000	standard	n/a
176.883	0.200	auditory standard stimulus presentation	0.000	standard	n/a
179.729	0.200	auditory standard stimulus presentation	0.000	standard	n/a
182.393	0.200	auditory standard stimulus presentation	0.000	standard	n/a
184.428	0.200	auditory standard stimulus presentation	0.000	standard	n/a
187.074	0.200	auditory standard stimulus presentation	0.000	standard	n/a
189.523	0.200	auditory standard stimulus presentation	0.000	standard	n/a
191.558	0.200	auditory standard stimulus presentation	0.000	standard	n/a
194.207	0.200	auditory standard stimulus presentation	0.000	standard	n/a
196.854	0.200	auditory standard stimulus presentation	0.000	standard	n/a
199.104	0.200	auditory standard stimulus presentation	0.000	standard	n/a
201.536	0.200	auditory standard stimulus presentation	0.000	standard	n/a
203.803	0.200	auditory standard stimulus presentation	0.000	standard	n/a
206.053	0.200	auditory standard stimulus presentation	0.000	standard	n/a
208.485	0.200	auditory standard stimulus presentation	0.000	standard	n/a
211.316	0.200	auditory standard stimulus presentation	0.000	standard	n/a
213.566	0.200	auditory standard stimulus presentation	0.000	standard	n/a
216.214	0.200	auditory standard stimulus presentation	0.000	standard	n/a
218.861	0.200	auditory standard stimulus presentation	0.000	standard	n/a
220.912	0.200	auditory standard stimulus presentation	0.000	standard	n/a
223.345	0.200	auditory standard stimulus presentation	0.000	standard	n/a
226.175	0.200	auditory standard stimulus presentation	0.000	standard	n/a
228.821	0.200	auditory standard stimulus presentation	0.000	standard	n/a
231.865	0.200	auditory standard stimulus presentation	0.000	standard	n/a
234.711	0.200	auditory standard stimulus presentation	0.000	standard	n/a
237.558	0.200	auditory standard stimulus presentation	0.000	standard	n/a
240.404	0.200	auditory standard stimulus presentation	0.000	standard	n/a
243.249	0.200	auditory standard stimulus presentation	0.000	standard	n/a
245.897	0.200	auditory standard stimulus presentation	0.000	standard	n/a
248.346	0.200	auditory standard stimulus presentation	0.000	standard	n/a
250.993	0.200	auditory standard stimulus presentation	0.000	standard	n/a
253.029	0.200	auditory standard stimulus presentation	0.000	standard	n/a
255.065	0.200	auditory standard stimulus presentation	0.000	standard	n/a
258.109	0.369	behavioral response time following auditory oddball stimulus onset	1.000	target	n/a
258.109	0.200	auditory oddball stimulus presentation	1.000	target	n/a
260.972	0.200	auditory standard stimulus presentation	0.000	standard	n/a
263.403	0.200	auditory standard stimulus presentation	0.000	standard	n/a
266.232	0.844	behavioral response time following auditory oddball stimulus onset	1.000	target	n/a
266.232	0.200	auditory oddball stimulus presentation	1.000	target	n/a
268.681	0.200	auditory standard stimulus presentation	0.000	standard	n/a
271.131	0.200	auditory standard stimulus presentation	0.000	standard	n/a
273.762	0.561	behavioral response time following auditory oddball stimulus onset	1.000	target	n/a
273.762	0.200	auditory oddball stimulus presentation	1.000	target	n/a
276.210	0.200	auditory standard stimulus presentation	0.000	standard	n/a
278.263	0.595	behavioral response time following auditory oddball stimulus onset	1.000	target	n/a
278.263	0.200	auditory oddball stimulus presentation	1.000	target	n/a
280.909	0.200	auditory standard stimulus presentation	0.000	standard	n/a
283.970	0.200	auditory standard stimulus presentation	0.000	standard	n/a
286.999	0.200	auditory standard stimulus presentation	0.000	standard	n/a
290.027	0.200	auditory oddball stimulus presentation	1.000	target	n/a
290.027	0.309	behavioral response time following auditory oddball stimulus onset	1.000	target	n/a
292.261	0.200	auditory standard stimulus presentation	0.000	standard	n/a
294.296	0.200	auditory standard stimulus presentation	0.000	standard	n/a
296.546	0.200	auditory standard stimulus presentation	0.000	standard	n/a
299.194	0.200	auditory standard stimulus presentation	0.000	standard	n/a
301.228	0.200	auditory standard stimulus presentation	0.000	standard	n/a
304.057	0.200	auditory standard stimulus presentation	0.000	standard	n/a
306.905	0.200	auditory standard stimulus presentation	0.000	standard	n/a
309.733	0.200	auditory standard stimulus presentation	0.000	standard	n/a
312.165	0.200	auditory standard stimulus presentation	0.000	standard	n/a
314.614	0.200	auditory standard stimulus presentation	0.000	standard	n/a
317.262	0.200	auditory standard stimulus presentation	0.000	standard	n/a
319.496	0.200	auditory oddball stimulus presentation	1.000	target	n/a
319.496	0.317	behavioral response time following auditory oddball stimulus onset	1.000	target	n/a
322.341	0.200	auditory oddball stimulus presentation	1.000	target	n/a
322.341	0.330	behavioral response time following auditory oddball stimulus onset	1.000	target	n/a
325.188	0.200	auditory standard stimulus presentation	0.000	standard	n/a
n/a	n/a	n/a	4.817	0	standard
n/a	n/a	n/a	7.827	0	standard
