onset	duration	trial_type	Response	Stimulus	response_time
4.936	0.200	auditory standard stimulus presentation	n/a	n/a	n/a
7.948	0.200	auditory standard stimulus presentation	n/a	n/a	n/a
10.976	0.200	auditory standard stimulus presentation	0.000	standard	n/a
13.623	0.200	auditory oddball stimulus presentation	1.000	target	n/a
13.623	0.347	behavioral response time following auditory oddball stimulus onset	1.000	target	n/a
15.874	0.200	auditory standard stimulus presentation	0.000	standard	n/a
18.704	0.200	auditory oddball stimulus presentation	1.000	target	n/a
18.704	0.347	behavioral response time following auditory oddball stimulus onset	1.000	target	n/a
20.755	0.200	auditory standard stimulus presentation	0.000	standard	n/a
23.403	0.200	auditory oddball stimulus presentation	1.000	target	n/a
23.403	0.382	behavioral response time following auditory oddball stimulus onset	1.000	target	n/a
26.446	0.200	auditory standard stimulus presentation	0.000	standard	n/a
29.077	0.200	auditory standard stimulus presentation	0.000	standard	n/a
31.510	0.200	auditory standard stimulus presentation	0.000	standard	n/a
33.562	0.200	auditory standard stimulus presentation	0.000	standard	n/a
36.639	0.200	auditory standard stimulus presentation	0.000	standard	n/a
39.072	0.336	behavioral response time following auditory oddball stimulus onset	1.000	target	n/a
39.072	0.200	auditory oddball stimulus presentation	1.000	target	n/a
42.116	0.200	auditory standard stimulus presentation	0.000	standard	n/a
44.963	0.200	auditory standard stimulus presentation	0.000	standard	n/a
47.610	0.200	auditory oddball stimulus presentation	1.000	target	n/a
47.610	0.270	behavioral response time following auditory oddball stimulus onset	1.000	target	n/a
50.059	0.200	auditory oddball stimulus presentation	1.000	target	n/a
50.059	0.322	behavioral response time following auditory oddball stimulus onset	1.000	target	n/a
52.689	0.330	behavioral response time following auditory oddball stimulus onset	1.000	target	n/a
52.689	0.200	auditory oddball stimulus presentation	1.000	target	n/a
55.337	0.200	auditory standard stimulus presentation	0.000	standard	n/a
57.968	0.200	auditory standard stimulus presentation	0.000	standard	n/a
60.614	0.200	auditory oddball stimulus presentation	1.000	target	n/a
60.614	0.310	behavioral response time following auditory oddball stimulus onset	1.000	target	n/a
62.848	0.200	auditory standard stimulus presentation	0.000	standard	n/a
65.298	0.311	behavioral response time following auditory oddball stimulus onset	1.000	target	n/a
65.298	0.200	auditory oddball stimulus presentation	1.000	target	n/a
67.746	0.200	auditory standard stimulus presentation	0.000	standard	n/a
69.798	0.200	auditory standard stimulus presentation	0.000	standard	n/a
72.842	0.200	auditory standard stimulus presentation	0.000	standard	n/a
75.291	0.200	auditory standard stimulus presentation	0.000	standard	n/a
78.137	0.200	auditory standard stimulus presentation	0.000	standard	n/a
80.587	0.200	auditory standard stimulus presentation	0.000	standard	n/a
83.233	0.272	behavioral response time following auditory oddball stimulus onset	1.000	target	n/a
83.233	0.200	auditory oddball stimulus presentation	1.000	target	n/a
85.285	0.404	behavioral response time following auditory oddball stimulus onset	1.000	target	n/a
85.285	0.200	auditory oddball stimulus presentation	1.000	target	n/a
88.314	0.200	auditory standard stimulus presentation	0.000	standard	n/a
90.762	0.200	auditory standard stimulus presentation	0.000	standard	n/a
92.797	0.200	auditory standard stimulus presentation	0.000	standard	n/a
94.833	0.200	auditory standard stimulus presentation	0.000	standard	n/a
97.860	0.200	auditory oddball stimulus presentation	1.000	target	n/a
97.860	0.287	behavioral response time following auditory oddball stimulus onset	1.000	target	n/a
100.509	0.200	auditory standard stimulus presentation	0.000	standard	n/a
102.941	0.200	auditory standard stimulus presentation	0.000	standard	n/a
105.589	0.200	auditory standard stimulus presentation	0.000	standard	n/a
108.219	0.200	auditory standard stimulus presentation	0.000	standard	n/a
110.867	0.200	auditory standard stimulus presentation	0.000	standard	n/a
112.902	0.200	auditory standard stimulus presentation	0.000	standard	n/a
114.938	0.200	auditory standard stimulus presentation	0.000	standard	n/a
116.973	0.200	auditory standard stimulus presentation	0.000	standard	n/a
119.818	0.200	auditory standard stimulus presentation	0.000	standard	n/a
122.051	0.359	behavioral response time following auditory oddball stimulus onset	1.000	target	n/a
122.051	0.200	auditory oddball stimulus presentation	1.000	target	n/a
125.096	0.200	auditory standard stimulus presentation	0.000	standard	n/a
127.744	0.200	auditory standard stimulus presentation	1.000	standard	n/a
129.779	0.200	auditory standard stimulus presentation	0.000	standard	n/a
132.030	0.200	auditory standard stimulus presentation	0.000	standard	n/a
134.478	0.200	auditory standard stimulus presentation	0.000	standard	n/a
137.224	0.200	auditory standard stimulus presentation	0.000	standard	n/a
139.475	0.200	auditory standard stimulus presentation	0.000	standard	n/a
142.322	0.200	auditory standard stimulus presentation	0.000	standard	n/a
144.372	0.200	auditory standard stimulus presentation	0.000	standard	n/a
147.020	0.200	auditory standard stimulus presentation	0.000	standard	n/a
149.072	0.200	auditory standard stimulus presentation	0.000	standard	n/a
151.123	0.200	auditory standard stimulus presentation	0.000	standard	n/a
153.754	0.200	auditory standard stimulus presentation	0.000	standard	n/a
155.790	0.200	auditory standard stimulus presentation	0.000	standard	n/a
158.835	0.200	auditory standard stimulus presentation	0.000	standard	n/a
161.266	0.200	auditory standard stimulus presentation	0.000	standard	n/a
163.914	0.200	auditory standard stimulus presentation	0.000	standard	n/a
166.546	0.200	auditory standard stimulus presentation	0.000	standard	n/a
168.580	0.200	auditory standard stimulus presentation	0.000	standard	n/a
171.411	0.200	auditory standard stimulus presentation	0.000	standard	n/a
174.256	0.200	auditory standard stimulus presentation	0.000	standard	n/a
176.687	0.200	auditory standard stimulus presentation	0.000	standard	n/a
179.717	0.200	auditory standard stimulus presentation	0.000	standard	n/a
182.777	0.200	auditory standard stimulus presentation	0.000	standard	n/a
185.821	0.200	auditory standard stimulus presentation	0.000	standard	n/a
188.072	0.200	auditory standard stimulus presentation	0.000	standard	n/a
190.521	0.200	auditory standard stimulus presentation	0.000	standard	n/a
192.772	0.200	auditory standard stimulus presentation	0.000	standard	n/a
195.800	0.200	auditory standard stimulus presentation	0.000	standard	n/a
198.629	0.200	auditory standard stimulus presentation	0.000	standard	n/a
200.863	0.200	auditory standard stimulus presentation	0.000	standard	n/a
202.915	0.200	auditory oddball stimulus presentation	1.000	target	n/a
202.915	0.319	behavioral response time following auditory oddball stimulus onset	1.000	target	n/a
205.544	0.277	behavioral response time following auditory oddball stimulus onset	1.000	target	n/a
205.544	0.200	auditory oddball stimulus presentation	1.000	target	n/a
208.573	0.360	behavioral response time following auditory oddball stimulus onset	1.000	target	n/a
208.573	0.200	auditory oddball stimulus presentation	1.000	target	n/a
211.418	0.312	behavioral response time following auditory oddball stimulus onset	1.000	target	n/a
211.418	0.200	auditory oddball stimulus presentation	1.000	target	n/a
214.481	0.359	behavioral response time following auditory oddball stimulus onset	1.000	target	n/a
214.481	0.200	auditory oddball stimulus presentation	1.000	target	n/a
216.929	0.200	auditory oddball stimulus presentation	1.000	target	n/a
216.929	0.292	behavioral response time following auditory oddball stimulus onset	1.000	target	n/a
219.774	0.200	auditory standard stimulus presentation	0.000	standard	n/a
222.819	0.200	auditory standard stimulus presentation	0.000	standard	n/a
225.880	0.200	auditory standard stimulus presentation	0.000	standard	n/a
228.511	0.200	auditory standard stimulus presentation	0.000	standard	n/a
231.539	0.200	auditory standard stimulus presentation	0.000	standard	n/a
234.386	0.200	auditory standard stimulus presentation	0.000	standard	n/a
237.430	0.200	auditory standard stimulus presentation	0.000	standard	n/a
240.475	0.200	auditory standard stimulus presentation	0.000	standard	n/a
242.924	0.200	auditory standard stimulus presentation	0.000	standard	n/a
245.570	0.200	auditory standard stimulus presentation	0.000	standard	n/a
248.019	0.200	auditory standard stimulus presentation	0.000	standard	n/a
250.651	0.200	auditory standard stimulus presentation	0.000	standard	n/a
253.315	0.200	auditory standard stimulus presentation	0.000	standard	n/a
255.961	0.274	behavioral response time following auditory oddball stimulus onset	1.000	target	n/a
255.961	0.200	auditory oddball stimulus presentation	1.000	target	n/a
258.592	0.200	auditory standard stimulus presentation	0.000	standard	n/a
261.438	0.200	auditory standard stimulus presentation	0.000	standard	n/a
264.086	0.501	behavioral response time following auditory oddball stimulus onset	1.000	target	n/a
264.086	0.200	auditory oddball stimulus presentation	1.000	target	n/a
266.933	0.310	behavioral response time following auditory oddball stimulus onset	1.000	target	n/a
266.933	0.200	auditory oddball stimulus presentation	1.000	target	n/a
269.216	0.200	auditory standard stimulus presentation	0.000	standard	n/a
272.062	0.200	auditory standard stimulus presentation	0.000	standard	n/a
274.097	0.200	auditory standard stimulus presentation	0.000	standard	n/a
276.943	0.594	behavioral response time following auditory oddball stimulus onset	1.000	target	n/a
276.943	0.200	auditory oddball stimulus presentation	1.000	target	n/a
278.994	0.200	auditory standard stimulus presentation	0.000	standard	n/a
281.029	0.200	auditory standard stimulus presentation	0.000	standard	n/a
283.064	0.200	auditory oddball stimulus presentation	1.000	target	n/a
283.064	0.545	behavioral response time following auditory oddball stimulus onset	1.000	target	n/a
286.109	0.200	auditory standard stimulus presentation	0.000	standard	n/a
289.153	n/a	n/a	1.000	standard	n/a
291.388	0.200	auditory standard stimulus presentation	0.000	standard	n/a
293.821	0.200	auditory standard stimulus presentation	0.000	standard	n/a
296.865	0.200	auditory standard stimulus presentation	0.000	standard	n/a
299.512	0.200	auditory standard stimulus presentation	0.000	standard	n/a
302.359	0.200	auditory standard stimulus presentation	0.000	standard	n/a
305.005	0.200	auditory standard stimulus presentation	0.000	standard	n/a
307.652	0.200	auditory standard stimulus presentation	0.000	standard	n/a
310.300	0.200	auditory standard stimulus presentation	0.000	standard	n/a
313.146	0.200	auditory standard stimulus presentation	0.000	standard	n/a
315.777	0.200	auditory standard stimulus presentation	0.000	standard	n/a
318.293	0.200	auditory standard stimulus presentation	0.000	standard	n/a
320.939	0.200	auditory standard stimulus presentation	0.000	standard	n/a
323.984	0.200	auditory standard stimulus presentation	0.000	standard	n/a
326.020	0.369	behavioral response time following auditory oddball stimulus onset	1.000	target	n/a
326.020	0.200	auditory oddball stimulus presentation	1.000	target	n/a
n/a	n/a	n/a	4.936	0	standard
n/a	n/a	n/a	7.948	0	standard
