onset	duration	trial_type	Response	Stimulus	response_time
6.932	0.200	visual standard stimulus presentation	n/a	n/a	n/a
9.945	0.200	visual standard stimulus presentation	n/a	n/a	n/a
12.161	0.200	visual standard stimulus presentation	0.000	standard	n/a
14.759	0.200	visual standard stimulus presentation	0.000	standard	n/a
17.158	0.200	visual standard stimulus presentation	0.000	standard	n/a
19.360	n/a	n/a	0.000	standard	n/a
21.957	n/a	n/a	0.000	standard	n/a
24.356	n/a	n/a	0.000	standard	n/a
26.556	n/a	n/a	0.000	standard	n/a
29.552	n/a	n/a	1.000	target	n/a
31.553	n/a	n/a	0.000	standard	n/a
34.549	0.200	visual standard stimulus presentation	0.000	standard	n/a
36.551	0.200	visual standard stimulus presentation	0.000	standard	n/a
38.752	0.200	visual standard stimulus presentation	0.000	standard	n/a
41.547	0.200	visual standard stimulus presentation	0.000	standard	n/a
43.748	0.200	visual standard stimulus presentation	0.000	standard	n/a
46.744	0.200	visual standard stimulus presentation	0.000	standard	n/a
49.143	0.200	visual standard stimulus presentation	0.000	standard	n/a
52.138	0.200	visual standard stimulus presentation	0.000	standard	n/a
54.736	0.200	visual standard stimulus presentation	0.000	standard	n/a
57.135	0.612	behavioral response time following visual oddball stimulus onset	1.000	target	n/a
57.135	0.200	visual oddball stimulus presentation	1.000	target	n/a
59.136	0.200	visual standard stimulus presentation	0.000	standard	n/a
61.337	0.200	visual standard stimulus presentation	0.000	standard	n/a
64.332	0.200	visual standard stimulus presentation	0.000	standard	n/a
66.533	0.471	behavioral response time following visual oddball stimulus onset	1.000	target	n/a
66.533	0.200	visual oddball stimulus presentation	1.000	target	n/a
68.734	0.200	visual standard stimulus presentation	0.000	standard	n/a
70.736	0.200	visual standard stimulus presentation	0.000	standard	n/a
73.134	0.200	visual standard stimulus presentation	0.000	standard	n/a
75.534	0.200	visual oddball stimulus presentation	1.000	target	n/a
75.534	0.352	behavioral response time following visual oddball stimulus onset	1.000	target	n/a
78.131	0.330	behavioral response time following visual oddball stimulus onset	1.000	target	n/a
78.131	0.200	visual oddball stimulus presentation	1.000	target	n/a
80.333	0.200	visual standard stimulus presentation	0.000	standard	n/a
82.930	0.595	behavioral response time following visual oddball stimulus onset	1.000	target	n/a
82.930	0.200	visual oddball stimulus presentation	1.000	target	n/a
85.330	0.200	visual standard stimulus presentation	0.000	standard	n/a
87.928	0.200	visual standard stimulus presentation	0.000	standard	n/a
90.128	0.200	visual standard stimulus presentation	0.000	standard	n/a
93.124	0.200	visual standard stimulus presentation	0.000	standard	n/a
95.721	0.200	visual oddball stimulus presentation	1.000	target	n/a
95.721	0.329	behavioral response time following visual oddball stimulus onset	1.000	target	n/a
98.716	0.200	visual standard stimulus presentation	0.000	standard	n/a
101.115	0.200	visual standard stimulus presentation	0.000	standard	n/a
104.109	0.357	behavioral response time following visual oddball stimulus onset	1.000	target	n/a
104.109	0.200	visual oddball stimulus presentation	1.000	target	n/a
106.509	0.391	behavioral response time following visual oddball stimulus onset	1.000	target	n/a
106.509	0.200	visual oddball stimulus presentation	1.000	target	n/a
108.710	0.307	behavioral response time following visual oddball stimulus onset	1.000	target	n/a
108.710	0.200	visual oddball stimulus presentation	1.000	target	n/a
111.108	n/a	n/a	0.000	standard	n/a
113.706	0.200	visual standard stimulus presentation	0.000	standard	n/a
115.907	0.200	visual standard stimulus presentation	0.000	standard	n/a
118.903	0.200	visual standard stimulus presentation	0.000	standard	n/a
121.301	0.200	visual standard stimulus presentation	0.000	standard	n/a
124.297	0.335	behavioral response time following visual oddball stimulus onset	1.000	target	n/a
124.297	0.200	visual oddball stimulus presentation	1.000	target	n/a
127.092	0.200	visual standard stimulus presentation	0.000	standard	n/a
129.094	0.200	visual oddball stimulus presentation	1.000	target	n/a
129.094	0.348	behavioral response time following visual oddball stimulus onset	1.000	target	n/a
132.089	0.200	visual standard stimulus presentation	0.000	standard	n/a
134.092	0.200	visual standard stimulus presentation	0.000	standard	n/a
136.492	0.200	visual standard stimulus presentation	0.000	standard	n/a
139.287	0.200	visual standard stimulus presentation	0.000	standard	n/a
141.489	0.333	behavioral response time following visual oddball stimulus onset	1.000	target	n/a
141.489	0.200	visual oddball stimulus presentation	1.000	target	n/a
143.491	0.340	behavioral response time following visual oddball stimulus onset	1.000	target	n/a
143.491	0.200	visual oddball stimulus presentation	1.000	target	n/a
146.088	0.312	behavioral response time following visual oddball stimulus onset	1.000	target	n/a
146.088	0.200	visual oddball stimulus presentation	1.000	target	n/a
148.885	0.200	visual oddball stimulus presentation	1.000	target	n/a
148.885	0.338	behavioral response time following visual oddball stimulus onset	1.000	target	n/a
151.086	0.200	visual standard stimulus presentation	0.000	standard	n/a
154.079	0.200	visual standard stimulus presentation	0.000	standard	n/a
156.479	0.200	visual standard stimulus presentation	0.000	standard	n/a
159.276	0.200	visual standard stimulus presentation	0.000	standard	n/a
161.675	0.200	visual standard stimulus presentation	0.000	standard	n/a
164.669	n/a	n/a	0.000	target	n/a
167.267	0.200	visual standard stimulus presentation	0.000	standard	n/a
169.270	0.200	visual standard stimulus presentation	0.000	standard	n/a
171.868	0.359	behavioral response time following visual oddball stimulus onset	1.000	target	n/a
171.868	0.200	visual oddball stimulus presentation	1.000	target	n/a
174.862	0.200	visual standard stimulus presentation	0.000	standard	n/a
177.658	0.200	visual standard stimulus presentation	0.000	standard	n/a
179.661	0.200	visual standard stimulus presentation	0.000	standard	n/a
182.458	0.200	visual standard stimulus presentation	0.000	standard	n/a
184.658	0.200	visual standard stimulus presentation	0.000	standard	n/a
187.057	0.338	behavioral response time following visual oddball stimulus onset	1.000	target	n/a
187.057	0.200	visual oddball stimulus presentation	1.000	target	n/a
189.059	0.200	visual standard stimulus presentation	0.000	standard	n/a
192.053	n/a	n/a	0.000	target	n/a
194.850	0.200	visual standard stimulus presentation	0.000	standard	n/a
197.449	0.200	visual standard stimulus presentation	0.000	standard	n/a
199.451	0.200	visual standard stimulus presentation	0.000	standard	n/a
201.849	0.200	visual standard stimulus presentation	0.000	standard	n/a
204.448	0.200	visual standard stimulus presentation	0.000	standard	n/a
206.647	0.200	visual standard stimulus presentation	0.000	standard	n/a
209.048	0.200	visual standard stimulus presentation	0.000	standard	n/a
211.248	0.200	visual standard stimulus presentation	0.000	standard	n/a
214.045	0.200	visual standard stimulus presentation	0.000	standard	n/a
216.840	0.200	visual standard stimulus presentation	0.000	standard	n/a
218.843	0.200	visual oddball stimulus presentation	1.000	target	n/a
218.843	0.676	behavioral response time following visual oddball stimulus onset	1.000	target	n/a
221.043	0.200	visual oddball stimulus presentation	1.000	target	n/a
221.043	0.330	behavioral response time following visual oddball stimulus onset	1.000	target	n/a
223.045	0.200	visual standard stimulus presentation	0.000	standard	n/a
225.643	0.200	visual standard stimulus presentation	0.000	standard	n/a
228.241	0.200	visual standard stimulus presentation	0.000	standard	n/a
230.442	n/a	n/a	0.000	target	n/a
232.840	0.200	visual standard stimulus presentation	0.000	standard	n/a
234.843	0.200	visual standard stimulus presentation	0.000	standard	n/a
236.845	0.200	visual standard stimulus presentation	0.000	standard	n/a
239.443	0.200	visual standard stimulus presentation	0.000	standard	n/a
242.040	0.200	visual standard stimulus presentation	0.000	standard	n/a
244.639	0.200	visual standard stimulus presentation	0.000	standard	n/a
246.640	0.200	visual standard stimulus presentation	0.000	standard	n/a
248.841	0.200	visual standard stimulus presentation	0.000	standard	n/a
251.638	0.200	visual standard stimulus presentation	0.000	standard	n/a
254.036	0.200	visual standard stimulus presentation	0.000	standard	n/a
256.635	0.200	visual standard stimulus presentation	0.000	standard	n/a
259.431	0.200	visual oddball stimulus presentation	1.000	target	n/a
259.431	0.320	behavioral response time following visual oddball stimulus onset	1.000	target	n/a
261.434	0.200	visual standard stimulus presentation	0.000	standard	n/a
263.436	0.200	visual standard stimulus presentation	0.000	standard	n/a
266.431	0.200	visual standard stimulus presentation	0.000	standard	n/a
269.226	0.200	visual standard stimulus presentation	0.000	standard	n/a
271.229	0.200	visual standard stimulus presentation	0.000	standard	n/a
274.224	0.200	visual standard stimulus presentation	0.000	standard	n/a
276.425	0.200	visual standard stimulus presentation	0.000	standard	n/a
279.418	0.200	visual standard stimulus presentation	0.000	standard	n/a
282.017	0.200	visual standard stimulus presentation	0.000	standard	n/a
284.614	0.200	visual oddball stimulus presentation	1.000	target	n/a
284.614	0.338	behavioral response time following visual oddball stimulus onset	1.000	target	n/a
287.410	0.200	visual standard stimulus presentation	0.000	standard	n/a
289.413	n/a	n/a	0.000	standard	n/a
291.614	0.200	visual standard stimulus presentation	0.000	standard	n/a
294.211	0.200	visual standard stimulus presentation	0.000	standard	n/a
296.810	0.200	visual standard stimulus presentation	0.000	standard	n/a
298.812	0.200	visual standard stimulus presentation	0.000	standard	n/a
301.807	0.200	visual standard stimulus presentation	0.000	standard	n/a
304.602	0.200	visual standard stimulus presentation	0.000	standard	n/a
307.001	0.200	visual standard stimulus presentation	0.000	standard	n/a
309.402	0.200	visual standard stimulus presentation	0.000	standard	n/a
311.403	0.200	visual standard stimulus presentation	0.000	standard	n/a
313.604	0.200	visual standard stimulus presentation	0.000	standard	n/a
n/a	n/a	n/a	6.932	0	standard
n/a	n/a	n/a	9.945	0	standard
