onset	duration	trial_number	event_type	executed_movement	correct_movement	shown_stimulus	included_trial	reason_for_exclusion
12	23	1	stimulus	n/a	n/a	white X	0	test trial
35	9.50314080005046	1	stimulus	n/a	n/a	red X	0	test trial
35.6951619000174	0	1	finger press	2	2	n/a	0	test trial
36.2246378000127	0	1	finger press	1	1	n/a	0	test trial
36.7663871000987	0	1	finger press	2	2	n/a	0	test trial
37.3213754000608	0	1	finger press	3	3	n/a	0	test trial
37.830531100044	0	1	finger press	2	2	n/a	0	test trial
38.3861599001102	0	1	finger press	1	1	n/a	0	test trial
38.9776382000418	0	1	finger press	3	3	n/a	0	test trial
39.527578300098	0	1	finger press	2	2	n/a	0	test trial
40.3028835000005	0	1	finger press	4	4	n/a	0	test trial
40.8257485000649	0	1	finger press	2	2	n/a	0	test trial
41.3764502000995	0	1	finger press	4	4	n/a	0	test trial
41.9373774999985	0	1	finger press	1	1	n/a	0	test trial
44.5200000000186	5	1	stimulus	n/a	n/a	white X	0	test trial
54.5600000000559	22.02	2	stimulus	n/a	n/a	white X	1	n/a
76.5619793001097	9.50321119988803	2	stimulus	n/a	n/a	red X	1	n/a
77.1132087000879	0	2	finger press	2	2	n/a	1	n/a
77.6809092001058	0	2	finger press	1	1	n/a	1	n/a
78.2247945000418	0	2	finger press	2	2	n/a	1	n/a
78.8291697000386	0	2	finger press	3	3	n/a	1	n/a
79.3972268000944	0	2	finger press	2	2	n/a	1	n/a
79.9538152000168	0	2	finger press	1	1	n/a	1	n/a
80.534828200005	0	2	finger press	3	3	n/a	1	n/a
81.0951344000641	0	2	finger press	2	2	n/a	1	n/a
81.7070693999995	0	2	finger press	4	4	n/a	1	n/a
82.2691727000056	0	2	finger press	2	2	n/a	1	n/a
82.8292814000743	0	2	finger press	4	4	n/a	1	n/a
83.4486000000034	0	2	finger press	1	1	n/a	1	n/a
86.0799999999581	5	2	stimulus	n/a	n/a	white X	1	n/a
95.140000000014	21	3	stimulus	n/a	n/a	white X	1	n/a
116.140644600033	9.50443600001745	3	stimulus	n/a	n/a	red X	1	n/a
116.832671700045	0	3	finger press	2	2	n/a	1	n/a
117.384742000024	0	3	finger press	1	1	n/a	1	n/a
117.938028500066	0	3	finger press	2	2	n/a	1	n/a
118.498291800031	0	3	finger press	3	3	n/a	1	n/a
119.031068600016	0	3	finger press	2	2	n/a	1	n/a
119.576305399998	0	3	finger press	1	1	n/a	1	n/a
120.120576100075	0	3	finger press	3	3	n/a	1	n/a
120.672431300045	0	3	finger press	2	2	n/a	1	n/a
121.231060500024	0	3	finger press	4	4	n/a	1	n/a
121.783542200108	0	3	finger press	2	2	n/a	1	n/a
122.326627800008	0	3	finger press	4	4	n/a	1	n/a
122.897298400057	0	3	finger press	1	1	n/a	1	n/a
125.660000000033	5	3	stimulus	n/a	n/a	white X	1	n/a
133.780000000028	24.02	4	stimulus	n/a	n/a	white X	1	n/a
157.785649400088	9.50406289997045	4	stimulus	n/a	n/a	red X	1	n/a
158.257024500053	0	4	finger press	2	2	n/a	1	n/a
158.814006000059	0	4	finger press	1	1	n/a	1	n/a
159.353095600032	0	4	finger press	2	2	n/a	1	n/a
159.902890200028	0	4	finger press	3	3	n/a	1	n/a
160.455567300087	0	4	finger press	2	2	n/a	1	n/a
161.037577500101	0	4	finger press	1	1	n/a	1	n/a
161.593550700112	0	4	finger press	3	3	n/a	1	n/a
162.161186900106	0	4	finger press	2	2	n/a	1	n/a
162.766962400055	0	4	finger press	4	4	n/a	1	n/a
163.322853800026	0	4	finger press	2	2	n/a	1	n/a
163.879954600008	0	4	finger press	4	4	n/a	1	n/a
164.466297200066	0	4	finger press	1	1	n/a	1	n/a
167.300000000047	5	4	stimulus	n/a	n/a	white X	1	n/a
174.680000000051	22	5	stimulus	n/a	n/a	white X	1	n/a
196.681293800008	9.50358820008114	5	stimulus	n/a	n/a	red X	1	n/a
197.245828200015	0	5	finger press	2	2	n/a	1	n/a
197.850597900106	0	5	finger press	1	1	n/a	1	n/a
198.409208300058	0	5	finger press	2	2	n/a	1	n/a
198.989942200016	0	5	finger press	3	3	n/a	1	n/a
199.549860400031	0	5	finger press	2	2	n/a	1	n/a
200.105555800023	0	5	finger press	1	1	n/a	1	n/a
200.709132900112	0	5	finger press	3	3	n/a	1	n/a
201.282528000069	0	5	finger press	2	2	n/a	1	n/a
201.849615900079	0	5	finger press	4	4	n/a	1	n/a
202.429053900065	0	5	finger press	2	2	n/a	1	n/a
203.026288000052	0	5	finger press	4	4	n/a	1	n/a
203.648852100014	0	5	finger press	1	1	n/a	1	n/a
206.199999999953	5	5	stimulus	n/a	n/a	white X	1	n/a
213.359999999986	24	6	stimulus	n/a	n/a	white X	1	n/a
237.36042510008	9.5032113000052	6	stimulus	n/a	n/a	red X	1	n/a
238.018008500105	0	6	finger press	2	2	n/a	1	n/a
238.605092300102	0	6	finger press	1	1	n/a	1	n/a
239.185386800091	0	6	finger press	2	2	n/a	1	n/a
239.718303000089	0	6	finger press	3	3	n/a	1	n/a
240.327547200024	0	6	finger press	2	2	n/a	1	n/a
240.901825400069	0	6	finger press	1	1	n/a	1	n/a
241.5190497	0	6	finger press	3	3	n/a	1	n/a
242.125402900041	0	6	finger press	2	2	n/a	1	n/a
242.735357100028	0	6	finger press	4	4	n/a	1	n/a
243.302542800084	0	6	finger press	2	2	n/a	1	n/a
243.8940038	0	6	finger press	4	4	n/a	1	n/a
244.479876100086	0	6	finger press	1	1	n/a	1	n/a
246.880000000005	5	6	stimulus	n/a	n/a	white X	1	n/a
254.420000000042	24	7	stimulus	n/a	n/a	white X	1	n/a
278.420023500104	9.50287189998198	7	stimulus	n/a	n/a	red X	1	n/a
278.957691000076	0	7	finger press	2	2	n/a	1	n/a
279.525998500059	0	7	finger press	1	1	n/a	1	n/a
280.069904000033	0	7	finger press	2	2	n/a	1	n/a
280.661705400096	0	7	finger press	3	3	n/a	1	n/a
281.274220100022	0	7	finger press	2	2	n/a	1	n/a
281.879016900086	0	7	finger press	1	1	n/a	1	n/a
282.486319000018	0	7	finger press	3	3	n/a	1	n/a
283.093394400086	0	7	finger press	2	2	n/a	1	n/a
283.73656910006	0	7	finger press	4	4	n/a	1	n/a
284.330661900109	0	7	finger press	2	2	n/a	1	n/a
284.929127200041	0	7	finger press	4	4	n/a	1	n/a
285.535648000077	0	7	finger press	1	1	n/a	1	n/a
287.939999999944	5	7	stimulus	n/a	n/a	white X	1	n/a
295.579999999958	21	8	stimulus	n/a	n/a	white X	1	n/a
316.57927300001	9.50320210005157	8	stimulus	n/a	n/a	red X	1	n/a
317.170699300012	0	8	finger press	2	2	n/a	1	n/a
317.773911700002	0	8	finger press	1	1	n/a	1	n/a
318.377478400012	0	8	finger press	2	2	n/a	1	n/a
318.99126540008	0	8	finger press	3	3	n/a	1	n/a
319.646450200002	0	8	finger press	2	2	n/a	1	n/a
320.258314700099	0	8	finger press	1	1	n/a	1	n/a
320.856110800058	0	8	finger press	3	3	n/a	1	n/a
321.441983600031	0	8	finger press	2	2	n/a	1	n/a
322.055484900018	0	8	finger press	4	4	n/a	1	n/a
322.661504700081	0	8	finger press	2	2	n/a	1	n/a
323.224357600091	0	8	finger press	4	4	n/a	1	n/a
323.858900100109	0	8	finger press	1	1	n/a	1	n/a
326.099999999977	5	8	stimulus	n/a	n/a	white X	1	n/a
333.319999999949	21	9	stimulus	n/a	n/a	white X	1	n/a
354.320356500102	9.50294419995043	9	stimulus	n/a	n/a	red X	1	n/a
354.882276100107	0	9	finger press	2	2	n/a	1	n/a
355.553210900049	0	9	finger press	1	1	n/a	1	n/a
356.159217600012	0	9	finger press	2	2	n/a	1	n/a
356.752438900061	0	9	finger press	3	3	n/a	1	n/a
357.361913200002	0	9	finger press	2	2	n/a	1	n/a
357.976778700016	0	9	finger press	1	1	n/a	1	n/a
358.562753100065	0	9	finger press	3	3	n/a	1	n/a
359.159907800029	0	9	finger press	2	2	n/a	1	n/a
359.74558820005	0	9	finger press	4	4	n/a	1	n/a
360.335401700111	0	9	finger press	2	2	n/a	1	n/a
360.939209600096	0	9	finger press	4	4	n/a	1	n/a
361.505177900079	0	9	finger press	1	1	n/a	1	n/a
363.839999999967	5	9	stimulus	n/a	n/a	white X	1	n/a
371.280000000028	23	10	stimulus	n/a	n/a	white X	1	n/a
394.277540900046	9.50296660000458	10	stimulus	n/a	n/a	red X	1	n/a
395.017699100077	0	10	finger press	2	2	n/a	1	n/a
395.592207800015	0	10	finger press	1	1	n/a	1	n/a
396.143557800096	0	10	finger press	2	2	n/a	1	n/a
396.712083400111	0	10	finger press	3	3	n/a	1	n/a
397.312238100101	0	10	finger press	2	2	n/a	1	n/a
397.905231600045	0	10	finger press	1	1	n/a	1	n/a
398.493849000079	0	10	finger press	3	3	n/a	1	n/a
399.099195200019	0	10	finger press	2	2	n/a	1	n/a
399.648302700021	0	10	finger press	4	4	n/a	1	n/a
400.238995400025	0	10	finger press	2	2	n/a	1	n/a
400.805588000105	0	10	finger press	4	4	n/a	1	n/a
401.394420300028	0	10	finger press	1	1	n/a	1	n/a
403.800000000047	5	10	stimulus	n/a	n/a	white X	1	n/a
410.699999999953	23	11	stimulus	n/a	n/a	white X	1	n/a
433.698090000078	9.50314699998125	11	stimulus	n/a	n/a	red X	1	n/a
434.320514400024	0	11	finger press	2	2	n/a	1	n/a
434.913539400091	0	11	finger press	1	1	n/a	1	n/a
435.480896000052	0	11	finger press	2	2	n/a	1	n/a
436.065272300038	0	11	finger press	3	3	n/a	1	n/a
436.670179800014	0	11	finger press	2	2	n/a	1	n/a
437.273540000082	0	11	finger press	1	1	n/a	1	n/a
437.849072500016	0	11	finger press	3	3	n/a	1	n/a
438.457239500014	0	11	finger press	2	2	n/a	1	n/a
439.087100900011	0	11	finger press	4	4	n/a	1	n/a
439.662454600097	0	11	finger press	2	2	n/a	1	n/a
440.250942200073	0	11	finger press	4	4	n/a	1	n/a
440.853360200068	0	11	finger press	1	1	n/a	1	n/a
443.219999999972	5	11	stimulus	n/a	n/a	white X	1	n/a
