onset	duration	trial_type	TrialType	Stimulus	SSD	Response	response_time	CorrectGo	SuccStop
0.000	1.500	go-critical	0	1	0.000	49	0.393	1	0
2.625	1.500	go-critical	0	1	0.000	49	0.405	1	0
6.125	1.500	failed stop-noncritical	1	0	0.150	50	0.375	1	0
8.750	1.500	failed stop-critical	1	1	0.150	49	0.302	1	0
11.250	1.500	go-critical	0	1	0.000	49	0.546	1	0
16.250	1.500	failed stop-noncritical	1	0	0.150	50	0.306	1	0
18.500	1.500	go-noncritical	0	0	0.000	50	0.368	1	0
20.750	1.500	go-noncritical	0	0	0.000	50	0.358	1	0
23.125	1.500	go-noncritical	0	0	0.000	50	0.391	1	0
25.250	1.500	go-noncritical	0	0	0.000	50	0.378	1	0
28.000	1.500	go-noncritical	0	0	0.000	50	0.364	1	0
30.125	1.500	go-critical	0	1	0.000	49	0.391	1	0
33.000	1.500	go-noncritical	0	0	0.000	50	0.356	1	0
35.375	1.500	go-critical	0	1	0.000	49	0.381	1	0
39.250	1.500	go-noncritical	0	0	0.000	50	0.330	1	0
42.500	1.500	go-critical	0	1	0.000	49	0.400	1	0
44.500	1.500	go-noncritical	0	0	0.000	50	0.528	1	0
49.125	1.500	go-noncritical	0	0	0.000	50	0.407	1	0
51.125	1.500	go-critical	0	1	0.000	49	0.471	1	0
53.250	1.500	go-critical	0	1	0.000	49	0.442	1	0
55.375	1.500	failed stop-critical	1	1	0.300	49	0.365	1	0
58.125	1.500	go-critical	0	1	0.000	49	0.431	1	0
60.125	1.500	go-critical	0	1	0.000	49	0.423	1	0
62.625	1.500	failed stop-noncritical	1	0	0.300	50	0.339	1	0
64.625	1.500	go-noncritical	0	0	0.000	50	0.371	1	0
67.125	1.500	go-noncritical	0	0	0.000	50	0.383	1	0
69.125	1.500	go-noncritical	0	0	0.000	50	0.367	1	0
71.625	1.500	go-critical	0	1	0.000	49	0.379	1	0
75.125	1.500	failed stop-critical	1	1	0.000	49	0.359	1	0
77.125	1.500	failed stop-noncritical	1	0	0.000	50	0.383	1	0
79.375	1.500	failed stop-critical	1	1	0.150	49	0.333	1	0
82.125	1.500	go-critical	0	1	0.000	49	0.422	1	0
85.375	1.500	go-critical	0	1	0.000	49	0.503	1	0
88.750	1.500	go-critical	0	1	0.000	49	0.382	1	0
91.625	1.500	successful stop-critical	1	1	0.100	0	0.000	0	1
93.875	1.500	go-noncritical	0	0	0.000	50	0.385	1	0
96.000	1.500	go-noncritical	0	0	0.000	50	0.491	1	0
98.000	1.500	failed stop-noncritical	1	0	0.100	50	0.468	1	0
101.625	1.500	go-noncritical	0	0	0.000	50	0.450	1	0
103.625	1.500	go-critical	0	1	0.000	49	0.770	1	0
106.125	1.500	go-noncritical	0	0	0.000	50	0.350	1	0
108.250	1.500	go-noncritical	0	0	0.000	50	0.433	1	0
111.875	1.500	successful stop-critical	1	1	-0.050	0	0.000	0	1
113.875	1.500	go-critical	0	1	0.000	49	0.585	1	0
116.500	1.500	go-noncritical	0	0	0.000	50	0.447	1	0
119.250	1.500	go-critical	0	1	0.000	49	0.409	1	0
121.750	1.500	go-critical	0	1	0.000	49	0.534	1	0
123.750	1.500	go-noncritical	0	0	0.000	50	0.414	1	0
126.000	1.500	go-critical	0	1	0.000	49	0.332	1	0
128.375	1.500	go-noncritical	0	0	0.000	50	0.356	1	0
130.500	1.500	go-noncritical	0	0	0.000	50	0.423	1	0
132.625	1.500	go-critical	0	1	0.000	49	0.418	1	0
135.875	1.500	go-critical	0	1	0.000	49	0.456	1	0
139.375	1.500	go-critical	0	1	0.000	49	0.396	1	0
143.250	1.500	failed stop-noncritical	1	0	0.100	50	0.306	1	0
145.875	1.500	failed stop-critical	1	1	0.100	49	0.352	1	0
148.125	1.500	successful stop-critical	1	1	0.250	0	0.000	0	1
151.000	1.500	go-critical	0	1	0.000	49	0.347	1	0
153.625	1.500	go-noncritical	0	0	0.000	50	0.379	1	0
159.125	1.500	failed stop-noncritical	1	0	-0.050	50	0.510	1	0
161.500	1.500	go-noncritical	0	0	0.000	50	0.423	1	0
164.750	1.500	go-noncritical	0	0	0.000	50	0.438	1	0
167.500	1.500	failed stop-noncritical	1	0	0.250	50	0.527	1	0
171.375	1.500	go-critical	0	1	0.000	49	0.412	1	0
173.375	1.500	go-noncritical	0	0	0.000	50	0.599	1	0
175.375	1.500	failed stop-noncritical	1	0	0.300	50	0.463	1	0
177.625	1.500	go-critical	0	1	0.000	49	0.348	1	0
180.250	1.500	go-noncritical	0	0	0.000	50	0.401	1	0
182.250	1.500	go-critical	0	1	0.000	49	0.484	1	0
184.625	1.500	go-critical	0	1	0.000	49	0.426	1	0
186.750	1.500	failed stop-noncritical	1	0	0.150	50	0.413	1	0
189.750	1.500	go-critical	0	1	0.000	49	0.317	1	0
193.375	1.500	go-critical	0	1	0.000	49	0.348	1	0
198.625	1.500	go-noncritical	0	0	0.000	50	0.371	1	0
201.625	1.500	go-noncritical	0	0	0.000	50	0.418	1	0
203.875	1.500	failed stop-noncritical	1	0	0.000	50	0.393	1	0
207.750	1.500	failed stop-critical	1	1	0.000	49	0.357	1	0
210.500	1.500	successful stop-critical	1	1	0.050	0	0.000	0	1
213.000	1.500	go-critical	0	1	0.000	49	0.659	1	0
216.125	1.500	go-noncritical	0	0	0.000	50	0.390	1	0
218.375	1.500	go-critical	0	1	0.000	49	0.372	1	0
220.500	1.500	go-noncritical	0	0	0.000	50	0.383	1	0
222.625	1.500	go-noncritical	0	0	0.000	50	0.458	1	0
224.875	1.500	go-noncritical	0	0	0.000	50	0.416	1	0
227.000	1.500	go-critical	0	1	0.000	49	0.388	1	0
230.125	1.500	go-noncritical	0	0	0.000	50	0.286	1	0
233.125	1.500	go-critical	0	1	0.000	49	0.319	1	0
235.250	1.500	go-critical	0	1	0.000	49	0.610	1	0
237.625	1.500	go-noncritical	0	0	0.000	50	0.491	1	0
240.250	1.500	failed stop-critical	1	1	0.300	49	0.417	1	0
243.500	1.500	failed stop-noncritical	1	0	0.050	50	0.376	1	0
247.875	1.500	go-noncritical	0	0	0.000	50	0.440	1	0
250.625	1.500	go-noncritical	0	0	0.000	50	0.482	1	0
253.250	1.500	go-critical	0	1	0.000	49	0.433	1	0
255.375	1.500	go-critical	0	1	0.000	49	0.348	1	0
257.375	1.500	successful stop-critical	1	1	0.150	0	0.000	0	1
259.500	1.500	go-critical	0	1	0.000	49	0.306	1	0
263.750	1.500	failed stop-noncritical	1	0	0.200	50	0.422	1	0
266.250	1.500	go-noncritical	0	0	0.000	50	0.426	1	0
268.250	1.500	go-noncritical	0	0	0.000	50	0.458	1	0
270.875	1.500	go-critical	0	1	0.000	49	0.489	1	0
273.125	1.500	failed stop-critical	1	1	0.200	49	0.318	1	0
275.750	1.500	successful stop-critical	1	1	-0.050	0	0.000	0	1
279.125	1.500	go-critical	0	1	0.000	49	0.375	1	0
281.125	1.500	go-critical	0	1	0.000	49	0.351	1	0
283.375	1.500	failed stop-noncritical	1	0	0.100	50	0.461	1	0
285.875	1.500	go-critical	0	1	0.000	49	0.320	1	0
288.000	1.500	failed stop-critical	1	1	0.250	49	0.508	1	0
292.125	1.500	go-noncritical	0	0	0.000	50	0.446	1	0
295.000	1.500	go-noncritical	0	0	0.000	50	0.436	1	0
297.625	1.500	go-noncritical	0	0	0.000	50	0.483	1	0
299.750	1.500	go-critical	0	1	0.000	49	0.446	1	0
304.375	1.500	go-noncritical	0	0	0.000	50	0.461	1	0
306.500	1.500	failed stop-noncritical	1	0	-0.050	50	0.384	1	0
311.000	1.500	go-critical	0	1	0.000	49	0.300	1	0
313.875	1.500	go-noncritical	0	0	0.000	50	0.265	1	0
316.000	1.500	go-critical	0	1	0.000	49	0.540	1	0
318.000	1.500	successful stop-critical	1	1	0.100	0	0.000	0	1
320.750	1.500	go-noncritical	0	0	0.000	50	0.270	1	0
323.500	1.500	go-noncritical	0	0	0.000	50	0.391	1	0
327.125	1.500	go-critical	0	1	0.000	49	0.310	1	0
329.250	1.500	go-noncritical	0	0	0.000	50	0.361	1	0
331.500	1.500	go-noncritical	0	0	0.000	50	0.415	1	0
334.000	1.500	go-critical	0	1	0.000	49	0.371	1	0
336.000	1.500	go-critical	0	1	0.000	49	0.812	1	0
339.250	1.500	go-critical	0	1	0.000	49	0.378	1	0
343.625	1.500	failed stop-noncritical	1	0	0.250	50	0.355	1	0
346.375	1.500	go-noncritical	0	0	0.000	50	0.484	1	0
