onset	duration	trial_type	TrialType	Stimulus	SSD	Response	RT	CorrectGo	SuccStop
0.0	1.5	junk	1	1	0.395	50	0.455	1	0
3.25	1.5	go	0	0	0.0	49	0.461	1	0
7.25	1.5	go	0	0	0.0	49	0.468	1	0
9.625	1.5	go	0	1	0.0	50	0.517	1	0
12.125	1.5	go	0	0	0.0	49	0.473	1	0
14.5	1.5	go	0	1	0.0	50	0.449	1	0
19.0	1.5	failed stop	1	1	0.355	50	0.525	1	0
24.5	1.5	go	0	0	0.0	49	0.616	1	0
26.625	1.5	go	0	0	0.0	49	0.531	1	0
28.75	1.5	go	0	1	0.0	50	0.565	1	0
31.75	1.5	go	0	0	0.0	49	0.804	1	0
34.5	1.5	successful stop	1	1	0.395	0	0.0	0	1
37.375	1.5	go	0	1	0.0	50	0.546	1	0
40.875	1.5	failed stop	1	1	0.395	50	0.51	1	0
46.0	1.5	go	0	0	0.0	49	0.616	1	0
48.875	1.5	go	0	0	0.0	49	0.589	1	0
51.25	1.5	go	0	1	0.0	50	0.574	1	0
53.375	1.5	go	0	1	0.0	50	0.632	1	0
55.5	1.5	successful stop	1	0	0.275	0	0.0	0	1
57.75	1.5	go	0	0	0.0	49	0.48	1	0
60.5	1.5	go	0	1	0.0	50	0.386	1	0
64.0	1.5	successful stop	1	0	0.355	0	0.0	0	1
66.75	1.5	go	0	0	0.0	49	0.695	1	0
69.125	1.5	go	0	1	0.0	50	0.463	1	0
71.125	1.5	go	0	0	0.0	49	0.575	1	0
73.375	1.5	failed stop	1	0	0.395	49	0.549	1	0
75.375	1.5	go	0	1	0.0	50	0.524	1	0
78.125	1.5	go	0	1	0.0	50	0.534	1	0
80.625	1.5	successful stop	1	0	0.275	0	0.0	0	1
82.875	1.5	go	0	1	0.0	50	0.559	1	0
87.375	1.5	go	0	1	0.0	50	0.522	1	0
90.0	1.5	go	0	0	0.0	49	0.569	1	0
92.5	1.5	go	0	0	0.0	49	0.572	1	0
95.0	1.5	go	0	1	0.0	50	0.544	1	0
97.0	1.5	go	0	0	0.0	49	0.64	1	0
99.625	1.5	successful stop	1	1	0.315	0	0.0	0	1
104.375	1.5	go	0	0	0.0	49	0.495	1	0
107.0	1.5	go	0	1	0.0	50	0.51	1	0
109.625	1.5	successful stop	1	1	0.355	0	0.0	0	1
112.375	1.5	go	0	0	0.0	49	0.454	1	0
115.25	1.5	go	0	0	0.0	49	0.475	1	0
118.0	1.5	failed stop	1	1	0.315	50	0.468	1	0
121.625	1.5	go	0	1	0.0	50	0.578	1	0
123.625	1.5	go	0	0	0.0	49	0.594	1	0
125.75	1.5	go	0	0	0.0	49	0.485	1	0
128.5	1.5	go	0	0	0.0	49	0.606	1	0
130.625	1.5	go	0	1	0.0	50	0.617	1	0
133.375	1.5	successful stop	1	1	0.275	0	0.0	0	1
135.875	1.5	go	0	1	0.0	50	0.55	1	0
138.5	1.5	go	0	0	0.0	49	0.605	1	0
142.375	1.5	go	0	0	0.0	49	0.361	1	0
144.375	1.5	successful stop	1	1	0.315	0	0.0	0	1
147.625	1.5	successful stop	1	1	0.315	0	0.0	0	1
149.875	1.5	go	0	0	0.0	49	0.436	1	0
152.0	1.5	go	0	0	0.0	49	0.55	1	0
155.5	1.5	go	0	1	0.0	50	0.57	1	0
158.0	1.5	go	0	1	0.0	50	0.597	1	0
162.125	1.5	go	0	0	0.0	49	0.64	1	0
165.75	1.5	successful stop	1	1	0.355	0	0.0	0	1
168.0	1.5	go	0	0	0.0	49	0.58	1	0
170.5	1.5	successful stop	1	1	0.315	0	0.0	0	1
173.0	1.5	go	0	0	0.0	49	0.563	1	0
175.875	1.5	go	0	1	0.0	50	0.543	1	0
178.0	1.5	go	0	0	0.0	49	0.602	1	0
181.875	1.5	go	0	1	0.0	50	0.454	1	0
185.125	1.5	failed stop	1	0	0.395	49	0.476	1	0
190.5	1.5	go	0	1	0.0	50	0.436	1	0
192.75	1.5	go	0	0	0.0	49	0.506	1	0
195.375	1.5	go	0	1	0.0	50	0.544	1	0
198.25	1.5	go	0	1	0.0	50	0.509	1	0
200.5	1.5	go	0	0	0.0	49	0.562	1	0
202.75	1.5	successful stop	1	0	0.275	0	0.0	0	1
204.75	1.5	successful stop	1	0	0.315	0	0.0	0	1
206.875	1.5	go	0	1	0.0	50	0.442	1	0
209.0	1.5	go	0	0	0.0	49	0.437	1	0
212.0	1.5	go	0	1	0.0	50	0.532	1	0
214.0	1.5	go	0	0	0.0	49	0.588	1	0
216.875	1.5	go	0	1	0.0	50	0.56	1	0
219.5	1.5	go	0	1	0.0	50	0.527	1	0
223.5	1.5	successful stop	1	0	0.315	0	0.0	0	1
226.0	1.5	successful stop	1	1	0.275	0	0.0	0	1
228.375	1.5	go	0	1	0.0	50	0.579	1	0
231.375	1.5	go	0	0	0.0	49	0.554	1	0
234.125	1.5	go	0	0	0.0	49	0.572	1	0
236.75	1.5	go	0	0	0.0	49	0.458	1	0
238.875	1.5	go	0	0	0.0	49	0.565	1	0
242.875	1.5	failed stop	1	1	0.275	50	0.436	1	0
246.375	1.5	go	0	1	0.0	50	0.576	1	0
248.875	1.5	go	0	1	0.0	50	0.515	1	0
251.875	1.5	go	0	0	0.0	49	0.611	1	0
255.125	1.5	failed stop	1	1	0.355	50	0.504	1	0
258.5	1.5	go	0	0	0.0	49	0.441	1	0
263.0	1.5	failed stop	1	1	0.395	50	0.54	1	0
265.375	1.5	go	0	0	0.0	49	0.493	1	0
267.5	1.5	go	0	1	0.0	50	0.632	1	0
271.25	1.5	go	0	0	0.0	49	0.601	1	0
273.25	1.5	go	0	0	0.0	49	0.512	1	0
275.625	1.5	go	0	0	0.0	49	0.537	1	0
280.375	1.5	successful stop	1	1	0.355	0	0.0	0	1
282.875	1.5	go	0	1	0.0	50	0.598	1	0
285.0	1.5	successful stop	1	1	0.395	0	0.0	0	1
287.875	1.5	go	0	0	0.0	49	0.413	1	0
290.0	1.5	go	0	0	0.0	49	0.551	1	0
292.25	1.5	go	0	1	0.0	50	0.589	1	0
295.625	1.5	go	0	0	0.0	49	0.557	1	0
297.75	1.5	go	0	1	0.0	50	0.48	1	0
300.125	1.5	go	0	0	0.0	49	0.457	1	0
302.125	1.5	successful stop	1	1	0.275	0	0.0	0	1
304.875	1.5	go	0	1	0.0	50	0.522	1	0
307.875	1.5	go	0	0	0.0	49	0.482	1	0
311.625	1.5	failed stop	1	1	0.355	50	0.403	1	0
313.625	1.5	go	0	0	0.0	49	0.426	1	0
315.875	1.5	go	0	1	0.0	50	0.48	1	0
318.25	1.5	go	0	0	0.0	49	0.513	1	0
322.75	1.5	successful stop	1	0	0.275	0	0.0	0	1
325.0	1.5	go	0	1	0.0	50	0.514	1	0
328.0	1.5	go	0	1	0.0	50	0.521	1	0
331.875	1.5	go	0	1	0.0	50	0.598	1	0
334.625	1.5	failed stop	1	0	0.395	49	0.608	1	0
337.375	1.5	go	0	0	0.0	49	0.609	1	0
340.25	1.5	go	0	0	0.0	49	0.477	1	0
343.125	1.5	successful stop	1	0	0.355	0	0.0	0	1
345.375	1.5	go	0	1	0.0	50	0.527	1	0
347.75	1.5	go	0	1	0.0	50	0.496	1	0
351.25	1.5	successful stop	1	0	0.315	0	0.0	0	1
354.0	1.5	go	0	0	0.0	49	0.861	1	0
356.625	1.5	go	0	1	0.0	50	0.467	1	0
359.125	1.5	go	0	1	0.0	50	0.551	1	0
