onset	duration	trial_type	TrialNum	StimCond	StimulusNum	Response	response_time	Correct
0.118	2.000	classification-probabilistic	1.000	1.000	10.000	L	0.845	1.000
3.306	2.000	classification-probabilistic	3.000	1.000	3.000	L	1.070	1.000
6.524	2.000	classification-probabilistic	5.000	1.000	11.000	R	0.798	1.000
10.780	2.000	classification-probabilistic	7.000	1.000	10.000	L	0.847	1.000
15.398	2.000	classification-deterministic	9.000	2.000	10.000	L	0.890	1.000
18.995	2.000	classification-deterministic	11.000	2.000	10.000	L	0.615	1.000
22.296	2.000	classification-deterministic	13.000	2.000	11.000	R	1.162	1.000
27.109	2.000	classification-deterministic	15.000	2.000	10.000	L	1.041	1.000
34.595	2.000	classification-deterministic	17.000	2.000	2.000	R	1.305	1.000
40.094	2.000	classification-probabilistic	19.000	1.000	3.000	L	0.694	1.000
43.577	2.000	classification-probabilistic	21.000	1.000	14.000	R	0.734	1.000
50.478	2.000	classification-deterministic	23.000	2.000	13.000	R	2.262	0.000
55.712	2.000	classification-probabilistic	25.000	1.000	2.000	R	0.707	1.000
59.492	2.000	classification-probabilistic	27.000	1.000	10.000	L	0.600	1.000
63.882	2.000	classification-probabilistic	29.000	1.000	10.000	L	0.592	1.000
67.893	2.000	classification-probabilistic	31.000	1.000	10.000	L	0.635	1.000
72.707	2.000	classification-deterministic	33.000	2.000	2.000	R	0.719	1.000
77.081	2.000	classification-probabilistic	35.000	1.000	3.000	L	0.619	1.000
82.179	2.000	classification-deterministic	37.000	2.000	5.000	R	1.074	1.000
88.981	2.000	classification-deterministic	39.000	2.000	1.000	L	1.143	1.000
93.584	2.000	classification-deterministic	41.000	2.000	13.000	R	1.297	0.000
100.195	2.000	classification-probabilistic	43.000	1.000	4.000	L	0.638	1.000
107.203	2.000	classification-probabilistic	45.000	1.000	4.000	L	1.924	1.000
110.384	2.000	classification-deterministic	47.000	2.000	10.000	R	0.842	0.000
113.815	2.000	classification-deterministic	49.000	2.000	2.000	R	0.756	1.000
117.809	2.000	classification-deterministic	51.000	2.000	1.000	L	0.712	1.000
125.181	2.000	classification-probabilistic	53.000	1.000	5.000	R	0.952	1.000
131.511	2.000	classification-probabilistic	55.000	1.000	6.000	L	0.905	1.000
136.818	2.000	classification-probabilistic	57.000	1.000	14.000	R	0.758	1.000
139.697	2.000	classification-deterministic	59.000	2.000	3.000	R	2.044	1.000
143.921	2.000	classification-deterministic	61.000	2.000	3.000	R	0.893	1.000
149.694	2.000	classification-probabilistic	63.000	1.000	3.000	L	0.739	1.000
157.317	2.000	classification-probabilistic	65.000	1.000	11.000	R	0.819	1.000
161.900	2.000	classification-deterministic	n/a	n/a	n/a	n/a	n/a	n/a
161.950	n/a	n/a	67.000	2.000	11.000	R	1.022	1.000
165.608	2.000	classification-probabilistic	69.000	1.000	7.000	L	0.596	1.000
169.809	2.000	classification-probabilistic	71.000	1.000	1.000	L	1.266	0.000
173.120	2.000	classification-probabilistic	73.000	1.000	6.000	L	1.131	1.000
176.276	2.000	classification-probabilistic	75.000	1.000	8.000	R	0.766	1.000
180.385	2.000	classification-probabilistic	77.000	1.000	8.000	R	1.203	1.000
184.815	2.000	classification-deterministic	79.000	2.000	3.000	R	1.829	1.000
189.422	2.000	classification-deterministic	81.000	2.000	13.000	R	1.673	0.000
192.720	2.000	classification-deterministic	83.000	2.000	9.000	R	1.167	1.000
196.281	2.000	classification-probabilistic	85.000	1.000	5.000	R	1.000	1.000
199.392	2.000	classification-probabilistic	87.000	1.000	5.000	R	0.709	1.000
202.798	2.000	classification-probabilistic	89.000	1.000	11.000	R	1.080	1.000
208.584	2.000	classification-probabilistic	91.000	1.000	4.000	L	0.662	1.000
215.699	2.000	classification-deterministic	93.000	2.000	13.000	R	1.915	0.000
222.703	2.000	classification-deterministic	95.000	2.000	3.000	R	0.699	1.000
227.084	2.000	classification-probabilistic	97.000	1.000	3.000	L	1.002	1.000
233.596	2.000	classification-probabilistic	99.000	1.000	11.000	R	1.710	1.000
236.691	2.000	classification-probabilistic	101.000	1.000	13.000	L	0.740	1.000
239.996	2.000	classification-deterministic	103.000	2.000	7.000	L	0.967	1.000
244.725	2.000	classification-deterministic	105.000	2.000	6.000	R	0.761	0.000
247.884	2.000	classification-deterministic	107.000	2.000	5.000	R	1.595	1.000
250.999	2.000	classification-deterministic	109.000	2.000	7.000	L	0.832	1.000
254.510	2.000	classification-probabilistic	111.000	1.000	6.000	L	0.782	1.000
259.393	2.000	classification-probabilistic	113.000	1.000	10.000	L	1.075	1.000
262.409	2.000	classification-deterministic	115.000	2.000	11.000	R	1.694	1.000
265.911	2.000	classification-deterministic	117.000	2.000	12.000	L	1.344	0.000
272.176	2.000	classification-deterministic	119.000	2.000	8.000	R	0.887	1.000
275.577	2.000	classification-probabilistic	121.000	1.000	11.000	R	0.934	1.000
280.076	2.000	classification-probabilistic	123.000	1.000	11.000	-	0.000	-1.000
283.077	2.000	classification-probabilistic	125.000	1.000	14.000	-	0.000	-1.000
289.508	2.000	classification-probabilistic	127.000	1.000	10.000	L	1.069	1.000
293.809	2.000	classification-deterministic	129.000	2.000	1.000	L	0.878	1.000
300.618	2.000	classification-probabilistic	131.000	1.000	10.000	L	0.796	1.000
305.076	2.000	classification-probabilistic	133.000	1.000	11.000	R	0.864	1.000
308.221	2.000	classification-deterministic	135.000	2.000	6.000	R	1.694	0.000
311.584	2.000	classification-deterministic	137.000	2.000	2.000	R	0.697	1.000
316.492	2.000	classification-probabilistic	139.000	1.000	10.000	L	0.797	1.000
323.095	2.000	classification-deterministic	141.000	2.000	4.000	L	1.123	1.000
326.909	2.000	classification-deterministic	143.000	2.000	13.000	-	0.000	-1.000
331.901	2.000	classification-probabilistic	145.000	1.000	5.000	R	0.842	1.000
339.394	2.000	classification-probabilistic	147.000	1.000	6.000	L	0.999	1.000
343.001	2.000	classification-probabilistic	149.000	1.000	5.000	R	0.703	1.000
347.817	2.000	classification-deterministic	151.000	2.000	3.000	R	0.784	1.000
351.975	2.000	classification-deterministic	153.000	2.000	1.000	L	0.788	1.000
356.112	2.000	classification-deterministic	155.000	2.000	7.000	L	1.261	1.000
363.014	2.000	classification-probabilistic	157.000	1.000	9.000	L	0.758	1.000
367.192	2.000	classification-probabilistic	159.000	1.000	14.000	R	0.867	1.000
371.980	2.000	classification-probabilistic	161.000	1.000	2.000	R	0.763	1.000
374.922	2.000	classification-deterministic	163.000	2.000	3.000	R	0.755	1.000
378.108	2.000	classification-deterministic	165.000	2.000	5.000	R	0.903	1.000
382.709	2.000	classification-probabilistic	167.000	1.000	11.000	R	0.716	1.000
386.585	2.000	classification-deterministic	169.000	2.000	2.000	R	0.651	1.000
393.095	2.000	classification-deterministic	171.000	2.000	12.000	L	1.424	0.000
397.897	2.000	classification-deterministic	173.000	2.000	6.000	R	1.527	0.000
400.976	2.000	classification-deterministic	175.000	2.000	2.000	R	0.717	1.000
407.310	2.000	classification-probabilistic	177.000	1.000	1.000	L	1.397	0.000
412.888	2.000	classification-deterministic	179.000	2.000	10.000	L	1.591	1.000
419.175	2.000	classification-deterministic	181.000	2.000	7.000	L	0.597	1.000
423.187	2.000	classification-deterministic	183.000	2.000	13.000	L	1.171	1.000
427.091	2.000	classification-deterministic	185.000	2.000	1.000	L	1.035	1.000
432.090	2.000	classification-probabilistic	187.000	1.000	12.000	L	0.757	-1.000
435.111	2.000	classification-probabilistic	189.000	1.000	8.000	R	1.219	1.000
441.008	2.000	classification-probabilistic	191.000	1.000	10.000	L	0.990	1.000
446.512	2.000	classification-deterministic	193.000	2.000	10.000	L	2.080	1.000
451.897	2.000	classification-deterministic	195.000	2.000	7.000	L	0.735	1.000
455.687	2.000	classification-deterministic	197.000	2.000	13.000	R	1.725	0.000
460.225	2.000	classification-deterministic	199.000	2.000	9.000	R	1.565	1.000
