onset	duration	trial_type	Response	Stimulus	RT
4.8260000000000005	0.2	visual standard stimulus presentation	n/a	n/a	n/a
7.44	0.2	visual standard stimulus presentation	n/a	n/a	n/a
9.856	0.2	visual oddball stimulus presentation	n/a	n/a	n/a
9.856	0.418	behavioral response time following visual oddball stimulus onset	n/a	n/a	n/a
12.455	0.2	visual standard stimulus presentation	0.0	standard	n/a
15.25	0.2	visual standard stimulus presentation	0.0	standard	n/a
17.849	0.2	visual standard stimulus presentation	0.0	standard	n/a
20.645	0.2	visual standard stimulus presentation	0.0	standard	n/a
23.044	0.2	visual standard stimulus presentation	0.0	standard	n/a
25.443	0.2	visual standard stimulus presentation	0.0	standard	n/a
27.445	0.2	visual standard stimulus presentation	0.0	standard	n/a
30.241999999999997	0.2	visual standard stimulus presentation	0.0	standard	n/a
32.243	0.2	visual standard stimulus presentation	0.0	standard	n/a
35.239000000000004	0.2	visual standard stimulus presentation	0.0	standard	n/a
37.836	0.2	visual standard stimulus presentation	0.0	standard	n/a
40.235	0.2	visual standard stimulus presentation	0.0	standard	n/a
42.238	0.2	visual standard stimulus presentation	0.0	standard	n/a
44.636	0.2	visual standard stimulus presentation	0.0	standard	n/a
46.836999999999996	0.2	visual standard stimulus presentation	0.0	standard	n/a
49.63399999999999	0.2	visual standard stimulus presentation	0.0	standard	n/a
52.43	0.2	visual standard stimulus presentation	0.0	standard	n/a
54.63	0.2	visual standard stimulus presentation	0.0	standard	n/a
57.03	0.2	visual standard stimulus presentation	0.0	standard	n/a
59.231	0.2	visual standard stimulus presentation	0.0	standard	n/a
62.226000000000006	0.2	visual standard stimulus presentation	0.0	standard	n/a
65.023	0.2	visual standard stimulus presentation	0.0	standard	n/a
67.222	0.2	visual standard stimulus presentation	0.0	standard	n/a
70.218	0.39899999999999997	behavioral response time following visual oddball stimulus onset	1.0	target	n/a
70.218	0.2	visual oddball stimulus presentation	1.0	target	n/a
72.418	0.2	visual standard stimulus presentation	0.0	standard	n/a
75.215	0.2	visual standard stimulus presentation	0.0	standard	n/a
77.415	0.2	visual standard stimulus presentation	0.0	standard	n/a
79.616	0.2	visual standard stimulus presentation	0.0	standard	n/a
81.619	0.535	behavioral response time following visual oddball stimulus onset	1.0	target	n/a
81.619	0.2	visual oddball stimulus presentation	1.0	target	n/a
84.61399999999999	0.2	visual standard stimulus presentation	0.0	standard	n/a
86.81299999999999	0.2	visual standard stimulus presentation	0.0	standard	n/a
88.816	0.2	visual standard stimulus presentation	0.0	standard	n/a
91.81	0.2	visual standard stimulus presentation	0.0	standard	n/a
94.40799999999999	n/a	n/a	0.0	standard	n/a
96.411	0.2	visual standard stimulus presentation	0.0	standard	n/a
98.412	0.2	visual oddball stimulus presentation	1.0	target	n/a
98.412	0.326	behavioral response time following visual oddball stimulus onset	1.0	target	n/a
100.613	0.2	visual oddball stimulus presentation	1.0	target	n/a
100.613	0.41200000000000003	behavioral response time following visual oddball stimulus onset	1.0	target	n/a
103.60799999999999	0.2	visual standard stimulus presentation	0.0	standard	n/a
106.404	0.2	visual standard stimulus presentation	0.0	standard	n/a
108.605	0.2	visual standard stimulus presentation	0.0	standard	n/a
110.60799999999999	0.2	visual standard stimulus presentation	0.0	standard	n/a
112.80799999999999	0.2	visual oddball stimulus presentation	1.0	target	n/a
112.80799999999999	0.384	behavioral response time following visual oddball stimulus onset	1.0	target	n/a
115.406	0.2	visual standard stimulus presentation	0.0	standard	n/a
117.60700000000001	0.2	visual standard stimulus presentation	0.0	standard	n/a
119.80799999999999	0.2	visual standard stimulus presentation	0.0	standard	n/a
122.604	0.2	visual standard stimulus presentation	0.0	standard	n/a
125.00299999999999	0.2	visual standard stimulus presentation	0.0	standard	n/a
127.40299999999999	0.2	visual standard stimulus presentation	0.0	standard	n/a
129.602	0.2	visual standard stimulus presentation	0.0	standard	n/a
132.003	0.2	visual standard stimulus presentation	0.0	standard	n/a
134.004	0.2	visual standard stimulus presentation	0.0	standard	n/a
136.999	0.2	visual standard stimulus presentation	0.0	standard	n/a
139.993	0.32	behavioral response time following visual oddball stimulus onset	1.0	target	n/a
139.993	0.2	visual oddball stimulus presentation	1.0	target	n/a
142.393	0.2	visual standard stimulus presentation	0.0	standard	n/a
144.99	0.2	visual standard stimulus presentation	0.0	standard	n/a
147.986	0.2	visual standard stimulus presentation	0.0	standard	n/a
149.988	0.2	visual standard stimulus presentation	0.0	standard	n/a
152.388	0.2	visual standard stimulus presentation	0.0	standard	n/a
154.39	0.2	visual standard stimulus presentation	0.0	standard	n/a
156.987	0.2	visual standard stimulus presentation	0.0	standard	n/a
159.981	0.2	visual standard stimulus presentation	0.0	standard	n/a
162.381	0.2	visual standard stimulus presentation	0.0	standard	n/a
165.178	0.2	visual standard stimulus presentation	0.0	standard	n/a
167.18	0.294	behavioral response time following visual oddball stimulus onset	1.0	target	n/a
167.18	0.2	visual oddball stimulus presentation	1.0	target	n/a
169.579	0.34700000000000003	behavioral response time following visual oddball stimulus onset	1.0	target	n/a
169.579	0.2	visual oddball stimulus presentation	1.0	target	n/a
172.17700000000002	0.2	visual standard stimulus presentation	0.0	standard	n/a
174.179	0.2	visual standard stimulus presentation	0.0	standard	n/a
176.577	0.2	visual standard stimulus presentation	0.0	standard	n/a
178.778	0.2	visual oddball stimulus presentation	1.0	target	n/a
178.778	0.36700000000000005	behavioral response time following visual oddball stimulus onset	1.0	target	n/a
181.575	0.2	visual standard stimulus presentation	0.0	standard	n/a
184.37099999999998	0.2	visual oddball stimulus presentation	1.0	target	n/a
184.37099999999998	0.389	behavioral response time following visual oddball stimulus onset	1.0	target	n/a
186.373	0.2	visual standard stimulus presentation	0.0	standard	n/a
188.773	0.2	visual standard stimulus presentation	0.0	standard	n/a
191.37	0.2	visual standard stimulus presentation	0.0	standard	n/a
193.968	0.2	visual standard stimulus presentation	0.0	standard	n/a
196.368	0.2	visual standard stimulus presentation	0.0	standard	n/a
199.16299999999998	0.353	behavioral response time following visual oddball stimulus onset	1.0	target	n/a
199.16299999999998	0.2	visual oddball stimulus presentation	1.0	target	n/a
201.563	0.2	visual standard stimulus presentation	0.0	standard	n/a
203.763	0.35100000000000003	behavioral response time following visual oddball stimulus onset	1.0	target	n/a
203.763	0.2	visual oddball stimulus presentation	1.0	target	n/a
206.361	0.452	behavioral response time following visual oddball stimulus onset	1.0	target	n/a
206.361	0.2	visual oddball stimulus presentation	1.0	target	n/a
209.356	0.2	visual standard stimulus presentation	0.0	standard	n/a
211.55700000000002	0.2	visual oddball stimulus presentation	1.0	target	n/a
211.55700000000002	0.364	behavioral response time following visual oddball stimulus onset	1.0	target	n/a
213.757	0.2	visual standard stimulus presentation	0.0	standard	n/a
216.753	0.2	visual standard stimulus presentation	0.0	standard	n/a
218.755	0.2	visual standard stimulus presentation	0.0	standard	n/a
221.551	0.2	visual oddball stimulus presentation	1.0	target	n/a
221.551	0.302	behavioral response time following visual oddball stimulus onset	1.0	target	n/a
224.149	0.2	visual standard stimulus presentation	0.0	standard	n/a
226.74599999999998	0.2	visual oddball stimulus presentation	1.0	target	n/a
226.74599999999998	0.299	behavioral response time following visual oddball stimulus onset	1.0	target	n/a
229.74099999999999	0.2	visual standard stimulus presentation	0.0	standard	n/a
232.737	0.2	visual standard stimulus presentation	0.0	standard	n/a
235.335	0.2	visual standard stimulus presentation	0.0	standard	n/a
238.13	0.309	behavioral response time following visual oddball stimulus onset	1.0	target	n/a
238.13	0.2	visual oddball stimulus presentation	1.0	target	n/a
240.926	0.2	visual standard stimulus presentation	0.0	standard	n/a
242.93	0.2	visual standard stimulus presentation	0.0	standard	n/a
244.93099999999998	0.2	visual standard stimulus presentation	0.0	standard	n/a
247.72799999999998	0.2	visual oddball stimulus presentation	1.0	target	n/a
247.72799999999998	0.342	behavioral response time following visual oddball stimulus onset	1.0	target	n/a
249.729	0.2	visual oddball stimulus presentation	1.0	target	n/a
249.729	0.381	behavioral response time following visual oddball stimulus onset	1.0	target	n/a
252.725	0.2	visual standard stimulus presentation	0.0	standard	n/a
255.32299999999998	0.2	visual standard stimulus presentation	0.0	standard	n/a
258.318	0.2	visual standard stimulus presentation	0.0	standard	n/a
260.32	0.2	visual standard stimulus presentation	0.0	standard	n/a
262.52099999999996	0.2	visual standard stimulus presentation	0.0	standard	n/a
264.522	0.2	visual standard stimulus presentation	0.0	standard	n/a
266.723	0.2	visual standard stimulus presentation	0.0	standard	n/a
269.32	0.337	behavioral response time following visual oddball stimulus onset	1.0	target	n/a
269.32	0.2	visual oddball stimulus presentation	1.0	target	n/a
271.918	0.2	visual oddball stimulus presentation	1.0	target	n/a
271.918	0.42	behavioral response time following visual oddball stimulus onset	1.0	target	n/a
274.119	0.326	behavioral response time following visual oddball stimulus onset	1.0	target	n/a
274.119	0.2	visual oddball stimulus presentation	1.0	target	n/a
277.115	0.2	visual standard stimulus presentation	0.0	standard	n/a
279.116	0.2	visual standard stimulus presentation	0.0	standard	n/a
281.317	0.2	visual standard stimulus presentation	0.0	standard	n/a
283.518	0.2	visual standard stimulus presentation	0.0	standard	n/a
285.519	0.2	visual standard stimulus presentation	0.0	standard	n/a
287.52099999999996	0.2	visual standard stimulus presentation	0.0	standard	n/a
289.524	0.2	visual standard stimulus presentation	0.0	standard	n/a
291.724	0.2	visual standard stimulus presentation	0.0	standard	n/a
293.72700000000003	0.2	visual standard stimulus presentation	0.0	standard	n/a
296.722	0.2	visual standard stimulus presentation	0.0	standard	n/a
299.121	0.2	visual oddball stimulus presentation	1.0	target	n/a
299.121	0.364	behavioral response time following visual oddball stimulus onset	1.0	target	n/a
301.52	0.2	visual standard stimulus presentation	0.0	standard	n/a
303.72	0.2	visual standard stimulus presentation	0.0	standard	n/a
306.715	0.2	visual standard stimulus presentation	0.0	standard	n/a
309.711	0.2	visual oddball stimulus presentation	1.0	target	n/a
309.711	0.376	behavioral response time following visual oddball stimulus onset	1.0	target	n/a
n/a	n/a	n/a	4.8260000000000005	0	standard
n/a	n/a	n/a	7.44	0	standard
n/a	n/a	n/a	9.856	1	target
