onset	duration	trial_type	Object_Cond	Validity_Cond	Obj_Accuracy	Obj_Acc_RT	Subseq_Recog	Subseq_Recog_RT	Subseq_Source_Mem_Acc	Subseq_Source_Mem_Acc_RT
4.0002	1.0	Valid Other Obj Cue: valid cue where following stimulus was an untested or no response object	OBJ	V	1	0.51156	UT	UT	UT	UT
6.0002	0.5	Valid Other Obj: stimulus that was an untested or no response object and that followed a valid cue	OBJ	V	1	0.51156	UT	UT	UT	UT
8.0011	1.0	Valid HC-Hit Cue: valid cue where following object was a subsequent high confidence hit	OBJ	V	1	0.46663999999999994	HC-HIT	0.87805	1	0.3861
14.0011	0.5	Valid HC-Hit Obj: object that was a subsequent high confidence hit and that followed a valid cue	OBJ	V	1	0.46663999999999994	HC-HIT	0.87805	1	0.3861
16.0017	1.0	Valid Other Greeble Cue: valid cue where following stimulus was an untested or no response greeble	GRE	V	1	0.62552	UT	UT	UT	UT
18.0017	0.5	Valid Other Greeble: stimulus that was an untested or no response greeble and that followed a valid cue	GRE	V	1	0.62552	UT	UT	UT	UT
20.0012	1.0	Valid HC-Hit Cue: valid cue where following object was a subsequent high confidence hit	OBJ	V	1	0.655	HC-HIT	 1.2608	1	0.18985
22.0012	0.5	Valid HC-Hit Obj: object that was a subsequent high confidence hit and that followed a valid cue	OBJ	V	1	0.655	HC-HIT	 1.2608	1	0.18985
24.000999999999998	1.0	Valid Other Greeble Cue: valid cue where following stimulus was an untested or no response greeble	GRE	V	1	0.6500100000000001	UT	UT	UT	UT
26.000999999999998	0.5	Valid Other Greeble: stimulus that was an untested or no response greeble and that followed a valid cue	GRE	V	1	0.6500100000000001	UT	UT	UT	UT
28.0012	1.0	Valid Other Greeble Cue: valid cue where following stimulus was an untested or no response greeble	GRE	V	1	0.6806399999999999	UT	UT	UT	UT
34.0012	0.5	Valid Other Greeble: stimulus that was an untested or no response greeble and that followed a valid cue	GRE	V	1	0.6806399999999999	UT	UT	UT	UT
36.001	1.0	Valid HC-Hit Cue: valid cue where following object was a subsequent high confidence hit	OBJ	V	1	0.68823	HC-HIT	0.92743	1	0.071408
42.001000000000005	0.5	Valid HC-Hit Obj: object that was a subsequent high confidence hit and that followed a valid cue	OBJ	V	1	0.68823	HC-HIT	0.92743	1	0.071408
46.001000000000005	1.0	Valid Miss Cue: valid cue where following object was a subsequent miss	OBJ	V	1	1.0984	HC-MISS	 1.0021	UT	UT
48.001000000000005	0.5	Valid Miss Obj: object that was a subsequent miss and that followed a valid cue	OBJ	V	1	1.0984	HC-MISS	 1.0021	UT	UT
50.0014	1.0	Valid HC-Hit Cue: valid cue where following object was a subsequent high confidence hit	OBJ	V	1	0.48108	HC-HIT	 1.0931	0	0.66031
54.0014	0.5	Valid HC-Hit Obj: object that was a subsequent high confidence hit and that followed a valid cue	OBJ	V	1	0.48108	HC-HIT	 1.0931	0	0.66031
56.0019	1.0	Invalid HC-Hit Cue: invalid cue where following object was a subsequent high confidence hit	OBJ	NV	1	0.65532	HC-HIT	0.84099	1	0.29479
58.0019	0.5	Invalid HC-Hit Obj: object that was a subsequent high confidence hit and that followed an invalid cue	OBJ	NV	1	0.65532	HC-HIT	0.84099	1	0.29479
60.0011	1.0	Valid HC-Hit Cue: valid cue where following object was a subsequent high confidence hit	OBJ	V	1	0.60515	HC-HIT	 1.2291	0	0.54583
62.0011	0.5	Valid HC-Hit Obj: object that was a subsequent high confidence hit and that followed a valid cue	OBJ	V	1	0.60515	HC-HIT	 1.2291	0	0.54583
64.0009	1.0	Valid HC-Hit Cue: valid cue where following object was a subsequent high confidence hit	OBJ	V	1	0.6277	HC-HIT	0.93744	1	0.12128
70.0009	0.5	Valid HC-Hit Obj: object that was a subsequent high confidence hit and that followed a valid cue	OBJ	V	1	0.6277	HC-HIT	0.93744	1	0.12128
72.0012	1.0	Valid HC-Hit Cue: valid cue where following object was a subsequent high confidence hit	OBJ	V	1	0.53289	HC-HIT	0.83381	1	0.099671
76.0012	0.5	Valid HC-Hit Obj: object that was a subsequent high confidence hit and that followed a valid cue	OBJ	V	1	0.53289	HC-HIT	0.83381	1	0.099671
78.0013	1.0	Invalid Miss Cue: invalid cue where following object was a subsequent miss	OBJ	NV	1	0.8771200000000001	LC-MISS	 1.7787	UT	UT
84.0013	0.5	Invalid Miss Obj: object that was a subsequent miss and that followed an invalid cue	OBJ	NV	1	0.8771200000000001	LC-MISS	 1.7787	UT	UT
88.0014	1.0	Valid HC-Hit Cue: valid cue where following object was a subsequent high confidence hit	OBJ	V	1	0.61198	HC-HIT	 1.6442	1	0.21055
92.0014	0.5	Valid HC-Hit Obj: object that was a subsequent high confidence hit and that followed a valid cue	OBJ	V	1	0.61198	HC-HIT	 1.6442	1	0.21055
94.0009	1.0	Valid Other Greeble Cue: valid cue where following stimulus was an untested or no response greeble	GRE	V	1	0.83815	UT	UT	UT	UT
98.0009	0.5	Valid Other Greeble: stimulus that was an untested or no response greeble and that followed a valid cue	GRE	V	1	0.83815	UT	UT	UT	UT
100.00200000000001	1.0	Valid Other Greeble Cue: valid cue where following stimulus was an untested or no response greeble	GRE	V	1	0.66133	UT	UT	UT	UT
106.00200000000001	0.5	Valid Other Greeble: stimulus that was an untested or no response greeble and that followed a valid cue	GRE	V	1	0.66133	UT	UT	UT	UT
108.001	1.0	Invalid LC-Hit Cue: invalid cue where following object was a subsequent low confidence hit	OBJ	NV	1	0.7677	LC-HIT	 1.7128	0	0.038287
112.001	0.5	Invalid LC-Hit Obj: object that was a subsequent low confidence hit and that followed an invalid cue	OBJ	NV	1	0.7677	LC-HIT	 1.7128	0	0.038287
114.0014	1.0	Valid HC-Hit Cue: valid cue where following object was a subsequent high confidence hit	OBJ	V	1	0.66263	HC-HIT	0.92521	1	0.2699
120.0014	0.5	Valid HC-Hit Obj: object that was a subsequent high confidence hit and that followed a valid cue	OBJ	V	1	0.66263	HC-HIT	0.92521	1	0.2699
122.0009	1.0	Valid HC-Hit Cue: valid cue where following object was a subsequent high confidence hit	OBJ	V	1	0.55588	HC-HIT	 1.2009	1	0.26032
124.0009	0.5	Valid HC-Hit Obj: object that was a subsequent high confidence hit and that followed a valid cue	OBJ	V	1	0.55588	HC-HIT	 1.2009	1	0.26032
128.0014	1.0	Invalid Other Greeble Cue: invalid cue where following stimulus was an untested or no response greeble	GRE	NV	1	1.0238	UT	UT	UT	UT
134.0014	0.5	Invalid Other Greeble: stimulus that was an untested or no response greeble and that followed a invalid cue	GRE	NV	1	1.0238	UT	UT	UT	UT
138.0015	1.0	Valid Miss Cue: valid cue where following object was a subsequent miss	OBJ	V	1	0.75949	LC-MISS	 1.8617	UT	UT
142.0015	0.5	Valid Miss Obj: object that was a subsequent miss and that followed a valid cue	OBJ	V	1	0.75949	LC-MISS	 1.8617	UT	UT
144.0015	1.0	Valid Other Obj Cue: valid cue where following stimulus was an untested or no response object	OBJ	V	1	0.6868	UT	UT	UT	UT
150.0015	0.5	Valid Other Obj: stimulus that was an untested or no response object and that followed a valid cue	OBJ	V	1	0.6868	UT	UT	UT	UT
152.0017	1.0	Valid HC-Hit Cue: valid cue where following object was a subsequent high confidence hit	OBJ	V	1	0.64668	HC-HIT	 1.8688	1	0.39596
158.0017	0.5	Valid HC-Hit Obj: object that was a subsequent high confidence hit and that followed a valid cue	OBJ	V	1	0.64668	HC-HIT	 1.8688	1	0.39596
160.0011	1.0	Valid Other Obj Cue: valid cue where following stimulus was an untested or no response object	OBJ	V	1	0.5257	UT	UT	UT	UT
166.0011	0.5	Valid Other Obj: stimulus that was an untested or no response object and that followed a valid cue	OBJ	V	1	0.5257	UT	UT	UT	UT
168.00099999999998	1.0	Invalid Miss Cue: invalid cue where following object was a subsequent miss	OBJ	NV	1	1.2109	HC-MISS	 1.9288	UT	UT
170.00099999999998	0.5	Invalid Miss Obj: object that was a subsequent miss and that followed an invalid cue	OBJ	NV	1	1.2109	HC-MISS	 1.9288	UT	UT
174.0016	1.0	Valid HC-Hit Cue: valid cue where following object was a subsequent high confidence hit	OBJ	V	1	0.63568	HC-HIT	 1.0937	1	0.20651
176.0016	0.5	Valid HC-Hit Obj: object that was a subsequent high confidence hit and that followed a valid cue	OBJ	V	1	0.63568	HC-HIT	 1.0937	1	0.20651
180.0015	1.0	Valid Other Greeble Cue: valid cue where following stimulus was an untested or no response greeble	GRE	V	1	0.8432299999999999	UT	UT	UT	UT
184.0015	0.5	Valid Other Greeble: stimulus that was an untested or no response greeble and that followed a valid cue	GRE	V	1	0.8432299999999999	UT	UT	UT	UT
186.0008	1.0	Valid LC-Hit Cue: valid cue where following object was a subsequent low confidence hit	OBJ	V	1	0.6302800000000001	LC-HIT	 3.2268	1	1.871
190.0008	0.5	Valid LC-Hit Obj: object that was a subsequent low confidence hit and that followed a valid cue	OBJ	V	1	0.6302800000000001	LC-HIT	 3.2268	1	1.871
192.0016	1.0	Valid Other Greeble Cue: valid cue where following stimulus was an untested or no response greeble	GRE	V	1	0.8456	UT	UT	UT	UT
198.0016	0.5	Valid Other Greeble: stimulus that was an untested or no response greeble and that followed a valid cue	GRE	V	1	0.8456	UT	UT	UT	UT
200.0009	1.0	Valid Other Greeble Cue: valid cue where following stimulus was an untested or no response greeble	GRE	V	1	0.68066	UT	UT	UT	UT
202.0009	0.5	Valid Other Greeble: stimulus that was an untested or no response greeble and that followed a valid cue	GRE	V	1	0.68066	UT	UT	UT	UT
204.0008	1.0	Valid Other Greeble Cue: valid cue where following stimulus was an untested or no response greeble	GRE	V	1	0.63272	UT	UT	UT	UT
210.0008	0.5	Valid Other Greeble: stimulus that was an untested or no response greeble and that followed a valid cue	GRE	V	1	0.63272	UT	UT	UT	UT
212.0018	1.0	Valid HC-Hit Cue: valid cue where following object was a subsequent high confidence hit	OBJ	V	1	0.60427	HC-HIT	 1.3801	1	0.14389
214.0018	0.5	Valid HC-Hit Obj: object that was a subsequent high confidence hit and that followed a valid cue	OBJ	V	1	0.60427	HC-HIT	 1.3801	1	0.14389
216.0007	1.0	Invalid Miss Cue: invalid cue where following object was a subsequent miss	OBJ	NV	1	1.167	HC-MISS	 1.4514	UT	UT
220.0007	0.5	Invalid Miss Obj: object that was a subsequent miss and that followed an invalid cue	OBJ	NV	1	1.167	HC-MISS	 1.4514	UT	UT
222.0011	1.0	Valid HC-Hit Cue: valid cue where following object was a subsequent high confidence hit	OBJ	V	1	0.78327	HC-HIT	 1.0344	1	0.25445
226.0011	0.5	Valid HC-Hit Obj: object that was a subsequent high confidence hit and that followed a valid cue	OBJ	V	1	0.78327	HC-HIT	 1.0344	1	0.25445
228.0012	1.0	Valid Other Obj Cue: valid cue where following stimulus was an untested or no response object	OBJ	V	1	0.6066199999999999	UT	UT	UT	UT
234.0012	0.5	Valid Other Obj: stimulus that was an untested or no response object and that followed a valid cue	OBJ	V	1	0.6066199999999999	UT	UT	UT	UT
238.0012	1.0	Invalid HC-Hit Cue: invalid cue where following object was a subsequent high confidence hit	OBJ	NV	1	1.0163	HC-HIT	 1.0884	1	0.12941
240.0012	0.5	Invalid HC-Hit Obj: object that was a subsequent high confidence hit and that followed an invalid cue	OBJ	NV	1	1.0163	HC-HIT	 1.0884	1	0.12941
246.0013	1.0	Valid Miss Cue: valid cue where following object was a subsequent miss	OBJ	V	1	0.67002	LC-MISS	 3.9458	UT	UT
250.0013	0.5	Valid Miss Obj: object that was a subsequent miss and that followed a valid cue	OBJ	V	1	0.67002	LC-MISS	 3.9458	UT	UT
252.0009	1.0	Valid HC-Hit Cue: valid cue where following object was a subsequent high confidence hit	OBJ	V	1	0.57853	HC-HIT	0.98044	0	0.7799
254.0009	0.5	Valid HC-Hit Obj: object that was a subsequent high confidence hit and that followed a valid cue	OBJ	V	1	0.57853	HC-HIT	0.98044	0	0.7799
256.0011	1.0	Invalid Miss Cue: invalid cue where following object was a subsequent miss	OBJ	NV	1	0.77148	LC-MISS	 2.4674	UT	UT
260.0011	0.5	Invalid Miss Obj: object that was a subsequent miss and that followed an invalid cue	OBJ	NV	1	0.77148	LC-MISS	 2.4674	UT	UT
264.0016	1.0	Valid HC-Hit Cue: valid cue where following object was a subsequent high confidence hit	OBJ	V	1	0.62192	HC-HIT	 1.2785	1	0.038304
266.0016	0.5	Valid HC-Hit Obj: object that was a subsequent high confidence hit and that followed a valid cue	OBJ	V	1	0.62192	HC-HIT	 1.2785	1	0.038304
268.0019	1.0	Valid LC-Hit Cue: valid cue where following object was a subsequent low confidence hit	OBJ	V	1	0.57599	LC-HIT	 2.3625	0	0.27629
272.0019	0.5	Valid LC-Hit Obj: object that was a subsequent low confidence hit and that followed a valid cue	OBJ	V	1	0.57599	LC-HIT	 2.3625	0	0.27629
274.001	1.0	Valid HC-Hit Cue: valid cue where following object was a subsequent high confidence hit	OBJ	V	1	0.5914699999999999	HC-HIT	 1.3103	1	0.31771
280.001	0.5	Valid HC-Hit Obj: object that was a subsequent high confidence hit and that followed a valid cue	OBJ	V	1	0.5914699999999999	HC-HIT	 1.3103	1	0.31771
282.0018	1.0	Valid Miss Cue: valid cue where following object was a subsequent miss	OBJ	V	1	0.67461	HC-MISS	 1.0903	UT	UT
284.0018	0.5	Valid Miss Obj: object that was a subsequent miss and that followed a valid cue	OBJ	V	1	0.67461	HC-MISS	 1.0903	UT	UT
286.0019	1.0	Valid Other Greeble Cue: valid cue where following stimulus was an untested or no response greeble	GRE	V	1	0.85454	UT	UT	UT	UT
288.0019	0.5	Valid Other Greeble: stimulus that was an untested or no response greeble and that followed a valid cue	GRE	V	1	0.85454	UT	UT	UT	UT
290.0015	1.0	Valid Other Greeble Cue: valid cue where following stimulus was an untested or no response greeble	GRE	V	1	0.76172	UT	UT	UT	UT
292.0015	0.5	Valid Other Greeble: stimulus that was an untested or no response greeble and that followed a valid cue	GRE	V	1	0.76172	UT	UT	UT	UT
294.0012	1.0	Invalid Other Greeble Cue: invalid cue where following stimulus was an untested or no response greeble	GRE	NV	1	0.7894	UT	UT	UT	UT
298.0012	0.5	Invalid Other Greeble: stimulus that was an untested or no response greeble and that followed a invalid cue	GRE	NV	1	0.7894	UT	UT	UT	UT
300.0014	1.0	Valid Other Greeble Cue: valid cue where following stimulus was an untested or no response greeble	GRE	V	1	0.9011399999999999	UT	UT	UT	UT
304.0014	0.5	Valid Other Greeble: stimulus that was an untested or no response greeble and that followed a valid cue	GRE	V	1	0.9011399999999999	UT	UT	UT	UT
306.0011	1.0	Valid Miss Cue: valid cue where following object was a subsequent miss	OBJ	V	1	0.6548	HC-MISS	0.98437	UT	UT
310.0011	0.5	Valid Miss Obj: object that was a subsequent miss and that followed a valid cue	OBJ	V	1	0.6548	HC-MISS	0.98437	UT	UT
314.0018	1.0	Valid Other Greeble Cue: valid cue where following stimulus was an untested or no response greeble	GRE	V	1	0.75464	UT	UT	UT	UT
316.0018	0.5	Valid Other Greeble: stimulus that was an untested or no response greeble and that followed a valid cue	GRE	V	1	0.75464	UT	UT	UT	UT
318.0008	1.0	Valid Other Greeble Cue: valid cue where following stimulus was an untested or no response greeble	GRE	V	1	0.66525	UT	UT	UT	UT
324.0008	0.5	Valid Other Greeble: stimulus that was an untested or no response greeble and that followed a valid cue	GRE	V	1	0.66525	UT	UT	UT	UT
326.0008	1.0	Valid HC-Hit Cue: valid cue where following object was a subsequent high confidence hit	OBJ	V	1	0.72312	HC-HIT	 2.1372	1	0.26767
330.0008	0.5	Valid HC-Hit Obj: object that was a subsequent high confidence hit and that followed a valid cue	OBJ	V	1	0.72312	HC-HIT	 2.1372	1	0.26767
334.00199999999995	1.0	Invalid LC-Hit Cue: invalid cue where following object was a subsequent low confidence hit	OBJ	NV	1	0.90333	LC-HIT	 1.5704	0	0.54222
340.00199999999995	0.5	Invalid LC-Hit Obj: object that was a subsequent low confidence hit and that followed an invalid cue	OBJ	NV	1	0.90333	LC-HIT	 1.5704	0	0.54222
342.001	1.0	Valid Other Obj Cue: valid cue where following stimulus was an untested or no response object	OBJ	V	1	0.7055899999999999	UT	UT	UT	UT
346.001	0.5	Valid Other Obj: stimulus that was an untested or no response object and that followed a valid cue	OBJ	V	1	0.7055899999999999	UT	UT	UT	UT
348.0016	1.0	Valid HC-Hit Cue: valid cue where following object was a subsequent high confidence hit	OBJ	V	1	0.6655300000000001	HC-HIT	 1.0509	1	0.76637
354.0016	0.5	Valid HC-Hit Obj: object that was a subsequent high confidence hit and that followed a valid cue	OBJ	V	1	0.6655300000000001	HC-HIT	 1.0509	1	0.76637
356.0009	1.0	Valid HC-Hit Cue: valid cue where following object was a subsequent high confidence hit	OBJ	V	1	0.58637	HC-HIT	 1.0662	1	0.090842
360.0009	0.5	Valid HC-Hit Obj: object that was a subsequent high confidence hit and that followed a valid cue	OBJ	V	1	0.58637	HC-HIT	 1.0662	1	0.090842
