onset	duration	trial_type	Object_Cond	Validity_Cond	Obj_Accuracy	Obj_Acc_RT	Subseq_Recog	Subseq_Recog_RT	Subseq_Source_Mem_Acc	Subseq_Source_Mem_Acc_RT
4.0002	1.0	Valid Other Greeble Cue: valid cue where following stimulus was an untested or no response greeble	GRE	V	1	0.64067	UT	UT	UT	UT
10.0002	0.5	Valid Other Greeble: stimulus that was an untested or no response greeble and that followed a valid cue	GRE	V	1	0.64067	UT	UT	UT	UT
12.0018	1.0	Valid Miss Cue: valid cue where following object was a subsequent miss	OBJ	V	1	0.77878	HC-MISS	  2.266	UT	UT
16.0018	0.5	Valid Miss Obj: object that was a subsequent miss and that followed a valid cue	OBJ	V	1	0.77878	HC-MISS	  2.266	UT	UT
18.0014	1.0	Valid HC-Hit Cue: valid cue where following object was a subsequent high confidence hit	OBJ	V	1	0.71714	HC-HIT	 1.3246	1	0.56214
22.0014	0.5	Valid HC-Hit Obj: object that was a subsequent high confidence hit and that followed a valid cue	OBJ	V	1	0.71714	HC-HIT	 1.3246	1	0.56214
26.0017	1.0	Valid Other Greeble Cue: valid cue where following stimulus was an untested or no response greeble	GRE	V	1	0.70613	UT	UT	UT	UT
32.0017	0.5	Valid Other Greeble: stimulus that was an untested or no response greeble and that followed a valid cue	GRE	V	1	0.70613	UT	UT	UT	UT
34.0015	1.0	Valid Other Obj Cue: valid cue where following stimulus was an untested or no response object	OBJ	V	1	0.8043100000000001	UT	UT	UT	UT
38.0015	0.5	Valid Other Obj: stimulus that was an untested or no response object and that followed a valid cue	OBJ	V	1	0.8043100000000001	UT	UT	UT	UT
40.0015	1.0	Invalid LC-Hit Cue: invalid cue where following object was a subsequent low confidence hit	OBJ	NV	1	1.0307	LC-HIT	 2.2527	0	0.3233
44.0015	0.5	Invalid LC-Hit Obj: object that was a subsequent low confidence hit and that followed an invalid cue	OBJ	NV	1	1.0307	LC-HIT	 2.2527	0	0.3233
48.0017	1.0	Valid Other Greeble Cue: valid cue where following stimulus was an untested or no response greeble	GRE	V	1	0.7676	UT	UT	UT	UT
50.0017	0.5	Valid Other Greeble: stimulus that was an untested or no response greeble and that followed a valid cue	GRE	V	1	0.7676	UT	UT	UT	UT
52.0018	1.0	Valid HC-Hit Cue: valid cue where following object was a subsequent high confidence hit	OBJ	V	1	0.80242	HC-HIT	 1.0943	1	0.29647
54.0018	0.5	Valid HC-Hit Obj: object that was a subsequent high confidence hit and that followed a valid cue	OBJ	V	1	0.80242	HC-HIT	 1.0943	1	0.29647
56.0015	1.0	Valid HC-Hit Cue: valid cue where following object was a subsequent high confidence hit	OBJ	V	1	0.6280600000000001	HC-HIT	0.88261	1	0.31751
60.0015	0.5	Valid HC-Hit Obj: object that was a subsequent high confidence hit and that followed a valid cue	OBJ	V	1	0.6280600000000001	HC-HIT	0.88261	1	0.31751
62.0009	1.0	Invalid Miss Cue: invalid cue where following object was a subsequent miss	OBJ	NV	1	0.78469	LC-MISS	 1.4276	UT	UT
64.0009	0.5	Invalid Miss Obj: object that was a subsequent miss and that followed an invalid cue	OBJ	NV	1	0.78469	LC-MISS	 1.4276	UT	UT
68.0008	1.0	Valid Other Greeble Cue: valid cue where following stimulus was an untested or no response greeble	GRE	V	1	0.76677	UT	UT	UT	UT
74.0008	0.5	Valid Other Greeble: stimulus that was an untested or no response greeble and that followed a valid cue	GRE	V	1	0.76677	UT	UT	UT	UT
78.0017	1.0	Valid HC-Hit Cue: valid cue where following object was a subsequent high confidence hit	OBJ	V	1	0.47758	HC-HIT	 1.5102	1	1.3489
80.0017	0.5	Valid HC-Hit Obj: object that was a subsequent high confidence hit and that followed a valid cue	OBJ	V	1	0.47758	HC-HIT	 1.5102	1	1.3489
84.0022	1.0	Valid HC-Hit Cue: valid cue where following object was a subsequent high confidence hit	OBJ	V	1	0.5522100000000001	HC-HIT	 1.3478	0	0.97783
88.0022	0.5	Valid HC-Hit Obj: object that was a subsequent high confidence hit and that followed a valid cue	OBJ	V	1	0.5522100000000001	HC-HIT	 1.3478	0	0.97783
92.0015	1.0	Valid Other Obj Cue: valid cue where following stimulus was an untested or no response object	OBJ	V	1	0.6373800000000001	UT	UT	UT	UT
98.0015	0.5	Valid Other Obj: stimulus that was an untested or no response object and that followed a valid cue	OBJ	V	1	0.6373800000000001	UT	UT	UT	UT
100.0017	1.0	Valid HC-Hit Cue: valid cue where following object was a subsequent high confidence hit	OBJ	V	1	0.59587	HC-HIT	 1.4084	0	0.26813
106.0017	0.5	Valid HC-Hit Obj: object that was a subsequent high confidence hit and that followed a valid cue	OBJ	V	1	0.59587	HC-HIT	 1.4084	0	0.26813
108.0018	1.0	Valid Other Greeble Cue: valid cue where following stimulus was an untested or no response greeble	GRE	V	1	0.70832	UT	UT	UT	UT
114.0018	0.5	Valid Other Greeble: stimulus that was an untested or no response greeble and that followed a valid cue	GRE	V	1	0.70832	UT	UT	UT	UT
116.0014	1.0	Invalid HC-Hit Cue: invalid cue where following object was a subsequent high confidence hit	OBJ	NV	1	0.87059	HC-HIT	0.99994	1	0.13521
120.0014	0.5	Invalid HC-Hit Obj: object that was a subsequent high confidence hit and that followed an invalid cue	OBJ	NV	1	0.87059	HC-HIT	0.99994	1	0.13521
122.0016	1.0	Valid HC-Hit Cue: valid cue where following object was a subsequent high confidence hit	OBJ	V	1	0.6648	HC-HIT	 1.0409	1	0.29921
124.0016	0.5	Valid HC-Hit Obj: object that was a subsequent high confidence hit and that followed a valid cue	OBJ	V	1	0.6648	HC-HIT	 1.0409	1	0.29921
128.0009	1.0	Valid Miss Cue: valid cue where following object was a subsequent miss	OBJ	V	1	0.56624	LC-MISS	 2.9446	UT	UT
134.0009	0.5	Valid Miss Obj: object that was a subsequent miss and that followed a valid cue	OBJ	V	1	0.56624	LC-MISS	 2.9446	UT	UT
136.0011	1.0	Valid HC-Hit Cue: valid cue where following object was a subsequent high confidence hit	OBJ	V	1	0.55373	HC-HIT	 1.1666	1	0.10544
140.0011	0.5	Valid HC-Hit Obj: object that was a subsequent high confidence hit and that followed a valid cue	OBJ	V	1	0.55373	HC-HIT	 1.1666	1	0.10544
142.0011	1.0	Valid Other Greeble Cue: valid cue where following stimulus was an untested or no response greeble	GRE	V	1	0.58381	UT	UT	UT	UT
148.0011	0.5	Valid Other Greeble: stimulus that was an untested or no response greeble and that followed a valid cue	GRE	V	1	0.58381	UT	UT	UT	UT
150.0017	1.0	Valid Other Obj Cue: valid cue where following stimulus was an untested or no response object	OBJ	V	1	0.57502	UT	UT	UT	UT
156.0017	0.5	Valid Other Obj: stimulus that was an untested or no response object and that followed a valid cue	OBJ	V	1	0.57502	UT	UT	UT	UT
158.001	1.0	Valid HC-Hit Cue: valid cue where following object was a subsequent high confidence hit	OBJ	V	1	0.48808999999999997	HC-HIT	 1.0058	1	0.34412
160.001	0.5	Valid HC-Hit Obj: object that was a subsequent high confidence hit and that followed a valid cue	OBJ	V	1	0.48808999999999997	HC-HIT	 1.0058	1	0.34412
162.0016	1.0	Invalid HC-Hit Cue: invalid cue where following object was a subsequent high confidence hit	OBJ	NV	1	0.80267	HC-HIT	 1.3777	1	1.0302
168.0016	0.5	Invalid HC-Hit Obj: object that was a subsequent high confidence hit and that followed an invalid cue	OBJ	NV	1	0.80267	HC-HIT	 1.3777	1	1.0302
172.0017	1.0	Valid LC-Hit Cue: valid cue where following object was a subsequent low confidence hit	OBJ	V	1	0.58746	LC-HIT	 2.1901	0	0.14445
176.0017	0.5	Valid LC-Hit Obj: object that was a subsequent low confidence hit and that followed a valid cue	OBJ	V	1	0.58746	LC-HIT	 2.1901	0	0.14445
178.0013	1.0	Valid Other Greeble Cue: valid cue where following stimulus was an untested or no response greeble	GRE	V	1	0.65399	UT	UT	UT	UT
180.0013	0.5	Valid Other Greeble: stimulus that was an untested or no response greeble and that followed a valid cue	GRE	V	1	0.65399	UT	UT	UT	UT
182.0012	1.0	Valid HC-Hit Cue: valid cue where following object was a subsequent high confidence hit	OBJ	V	1	0.53801	HC-HIT	0.89057	1	0.67695
184.0012	0.5	Valid HC-Hit Obj: object that was a subsequent high confidence hit and that followed a valid cue	OBJ	V	1	0.53801	HC-HIT	0.89057	1	0.67695
186.0017	1.0	Valid Other Obj Cue: valid cue where following stimulus was an untested or no response object	OBJ	V	1	0.5777	UT	UT	UT	UT
192.0017	0.5	Valid Other Obj: stimulus that was an untested or no response object and that followed a valid cue	OBJ	V	1	0.5777	UT	UT	UT	UT
194.0013	1.0	Invalid Other Greeble Cue: invalid cue where following stimulus was an untested or no response greeble	GRE	NV	1	0.85098	UT	UT	UT	UT
198.0013	0.5	Invalid Other Greeble: stimulus that was an untested or no response greeble and that followed a invalid cue	GRE	NV	1	0.85098	UT	UT	UT	UT
200.0018	1.0	Valid HC-Hit Cue: valid cue where following object was a subsequent high confidence hit	OBJ	V	1	0.5896899999999999	HC-HIT	 1.4315	1	0.16229
204.0018	0.5	Valid HC-Hit Obj: object that was a subsequent high confidence hit and that followed a valid cue	OBJ	V	1	0.5896899999999999	HC-HIT	 1.4315	1	0.16229
206.0015	1.0	Valid Miss Cue: valid cue where following object was a subsequent miss	OBJ	V	1	0.57731	HC-MISS	 1.0569	UT	UT
208.0015	0.5	Valid Miss Obj: object that was a subsequent miss and that followed a valid cue	OBJ	V	1	0.57731	HC-MISS	 1.0569	UT	UT
210.0011	1.0	Invalid Miss Cue: invalid cue where following object was a subsequent miss	OBJ	NV	1	0.93911	LC-MISS	 3.6658	UT	UT
214.0011	0.5	Invalid Miss Obj: object that was a subsequent miss and that followed an invalid cue	OBJ	NV	1	0.93911	LC-MISS	 3.6658	UT	UT
216.0018	1.0	Valid LC-Hit Cue: valid cue where following object was a subsequent low confidence hit	OBJ	V	1	0.7743899999999999	LC-HIT	 2.9408	1	0.89045
218.0018	0.5	Valid LC-Hit Obj: object that was a subsequent low confidence hit and that followed a valid cue	OBJ	V	1	0.7743899999999999	LC-HIT	 2.9408	1	0.89045
220.0009	1.0	Valid Other Greeble Cue: valid cue where following stimulus was an untested or no response greeble	GRE	V	1	0.8803700000000001	UT	UT	UT	UT
224.0009	0.5	Valid Other Greeble: stimulus that was an untested or no response greeble and that followed a valid cue	GRE	V	1	0.8803700000000001	UT	UT	UT	UT
226.0009	1.0	Valid Miss Cue: valid cue where following object was a subsequent miss	OBJ	V	1	0.68737	HC-MISS	 1.2028	UT	UT
232.0009	0.5	Valid Miss Obj: object that was a subsequent miss and that followed a valid cue	OBJ	V	1	0.68737	HC-MISS	 1.2028	UT	UT
234.0013	1.0	Valid HC-Hit Cue: valid cue where following object was a subsequent high confidence hit	OBJ	V	1	0.5783	HC-HIT	 1.0085	1	0.31755
238.0013	0.5	Valid HC-Hit Obj: object that was a subsequent high confidence hit and that followed a valid cue	OBJ	V	1	0.5783	HC-HIT	 1.0085	1	0.31755
240.0009	1.0	Valid HC-Hit Cue: valid cue where following object was a subsequent high confidence hit	OBJ	V	1	0.54984	HC-HIT	 1.4198	0	0.58242
242.0009	0.5	Valid HC-Hit Obj: object that was a subsequent high confidence hit and that followed a valid cue	OBJ	V	1	0.54984	HC-HIT	 1.4198	0	0.58242
244.0009	1.0	Valid Other Greeble Cue: valid cue where following stimulus was an untested or no response greeble	GRE	V	1	0.5131899999999999	UT	UT	UT	UT
246.0009	0.5	Valid Other Greeble: stimulus that was an untested or no response greeble and that followed a valid cue	GRE	V	1	0.5131899999999999	UT	UT	UT	UT
248.0016	1.0	Valid HC-Hit Cue: valid cue where following object was a subsequent high confidence hit	OBJ	V	1	0.47036000000000006	HC-HIT	0.93362	1	0.07685
254.0016	0.5	Valid HC-Hit Obj: object that was a subsequent high confidence hit and that followed a valid cue	OBJ	V	1	0.47036000000000006	HC-HIT	0.93362	1	0.07685
256.002	1.0	Invalid HC-Hit Cue: invalid cue where following object was a subsequent high confidence hit	OBJ	NV	1	0.78087	HC-HIT	0.76822	0	0.29406
258.002	0.5	Invalid HC-Hit Obj: object that was a subsequent high confidence hit and that followed an invalid cue	OBJ	NV	1	0.78087	HC-HIT	0.76822	0	0.29406
264.0016	1.0	Valid Other Obj Cue: valid cue where following stimulus was an untested or no response object	OBJ	V	1	0.58929	UT	UT	UT	UT
266.0016	0.5	Valid Other Obj: stimulus that was an untested or no response object and that followed a valid cue	OBJ	V	1	0.58929	UT	UT	UT	UT
268.0019	1.0	Valid Miss Cue: valid cue where following object was a subsequent miss	OBJ	V	1	0.5611	LC-MISS	 1.5167	UT	UT
270.0019	0.5	Valid Miss Obj: object that was a subsequent miss and that followed a valid cue	OBJ	V	1	0.5611	LC-MISS	 1.5167	UT	UT
272.0019	1.0	Valid Other Greeble Cue: valid cue where following stimulus was an untested or no response greeble	GRE	V	1	0.44827	UT	UT	UT	UT
274.0019	0.5	Valid Other Greeble: stimulus that was an untested or no response greeble and that followed a valid cue	GRE	V	1	0.44827	UT	UT	UT	UT
276.0009	1.0	Valid HC-Hit Cue: valid cue where following object was a subsequent high confidence hit	OBJ	V	1	0.5165	HC-HIT	 1.0719	0	0.050874
282.0009	0.5	Valid HC-Hit Obj: object that was a subsequent high confidence hit and that followed a valid cue	OBJ	V	1	0.5165	HC-HIT	 1.0719	0	0.050874
286.0017	1.0	Invalid HC-Hit Cue: invalid cue where following object was a subsequent high confidence hit	OBJ	NV	1	0.80983	HC-HIT	 1.0412	0	0.35656
292.0017	0.5	Invalid HC-Hit Obj: object that was a subsequent high confidence hit and that followed an invalid cue	OBJ	NV	1	0.80983	HC-HIT	 1.0412	0	0.35656
294.0008	1.0	Valid Other Greeble Cue: valid cue where following stimulus was an untested or no response greeble	GRE	V	1	0.40554	UT	UT	UT	UT
300.0008	0.5	Valid Other Greeble: stimulus that was an untested or no response greeble and that followed a valid cue	GRE	V	1	0.40554	UT	UT	UT	UT
304.0021	1.0	Valid HC-Hit Cue: valid cue where following object was a subsequent high confidence hit	OBJ	V	1	0.53541	HC-HIT	 1.3542	1	0.23063
308.0021	0.5	Valid HC-Hit Obj: object that was a subsequent high confidence hit and that followed a valid cue	OBJ	V	1	0.53541	HC-HIT	 1.3542	1	0.23063
310.0019	1.0	Valid Other Greeble Cue: valid cue where following stimulus was an untested or no response greeble	GRE	V	0	0.44809	UT	UT	UT	UT
312.0019	0.5	Valid Other Greeble: stimulus that was an untested or no response greeble and that followed a valid cue	GRE	V	0	0.44809	UT	UT	UT	UT
314.0018	1.0	Valid HC-Hit Cue: valid cue where following object was a subsequent high confidence hit	OBJ	V	1	0.5485300000000001	HC-HIT	 1.2886	1	1.385
320.0018	0.5	Valid HC-Hit Obj: object that was a subsequent high confidence hit and that followed a valid cue	OBJ	V	1	0.5485300000000001	HC-HIT	 1.2886	1	1.385
322.0018	1.0	Invalid Other Greeble Cue: invalid cue where following stimulus was an untested or no response greeble	GRE	NV	1	0.87829	UT	UT	UT	UT
324.0018	0.5	Invalid Other Greeble: stimulus that was an untested or no response greeble and that followed a invalid cue	GRE	NV	1	0.87829	UT	UT	UT	UT
326.0008	1.0	Valid Other Greeble Cue: valid cue where following stimulus was an untested or no response greeble	GRE	V	1	0.64952	UT	UT	UT	UT
330.0008	0.5	Valid Other Greeble: stimulus that was an untested or no response greeble and that followed a valid cue	GRE	V	1	0.64952	UT	UT	UT	UT
332.0019	1.0	Valid HC-Hit Cue: valid cue where following object was a subsequent high confidence hit	OBJ	V	1	0.52896	HC-HIT	 1.2357	0	0.46273
338.0019	0.5	Valid HC-Hit Obj: object that was a subsequent high confidence hit and that followed a valid cue	OBJ	V	1	0.52896	HC-HIT	 1.2357	0	0.46273
340.0016	1.0	Valid HC-Hit Cue: valid cue where following object was a subsequent high confidence hit	OBJ	V	1	0.61129	HC-HIT	  1.086	0	0.27875
344.0016	0.5	Valid HC-Hit Obj: object that was a subsequent high confidence hit and that followed a valid cue	OBJ	V	1	0.61129	HC-HIT	  1.086	0	0.27875
346.0015	1.0	Valid Other Greeble Cue: valid cue where following stimulus was an untested or no response greeble	GRE	V	1	0.6436	UT	UT	UT	UT
350.0015	0.5	Valid Other Greeble: stimulus that was an untested or no response greeble and that followed a valid cue	GRE	V	1	0.6436	UT	UT	UT	UT
352.0009	1.0	Invalid HC-Hit Cue: invalid cue where following object was a subsequent high confidence hit	OBJ	NV	1	0.89615	HC-HIT	 1.1071	1	0.16409
354.0009	0.5	Invalid HC-Hit Obj: object that was a subsequent high confidence hit and that followed an invalid cue	OBJ	NV	1	0.89615	HC-HIT	 1.1071	1	0.16409
356.0036	1.0	Valid LC-Hit Cue: valid cue where following object was a subsequent low confidence hit	OBJ	V	1	0.61727	LC-HIT	 1.7724	0	0.71979
360.0036	0.5	Valid LC-Hit Obj: object that was a subsequent low confidence hit and that followed a valid cue	OBJ	V	1	0.61727	LC-HIT	 1.7724	0	0.71979
