onset	duration	trial_type	Object_Cond	Validity_Cond	Obj_Accuracy	Obj_Acc_RT	Subseq_Recog	Subseq_Recog_RT	Subseq_Source_Mem_Acc	Subseq_Source_Mem_Acc_RT
4.000	1.000	Valid Other Obj Cue: valid cue where following stimulus was an untested or no response object	OBJ	V	1	0.92848	UT	UT	UT	UT
6.000	0.500	Valid Other Obj: stimulus that was an untested or no response object and that followed a valid cue	OBJ	V	1	0.92848	UT	UT	UT	UT
8.001	1.000	Invalid Miss Cue: invalid cue where following object was a subsequent miss	OBJ	NV	1	0.61429	LC-MISS	 2.6683	UT	UT
10.001	0.500	Invalid Miss Obj: object that was a subsequent miss and that followed an invalid cue	OBJ	NV	1	0.61429	LC-MISS	 2.6683	UT	UT
12.001	1.000	Valid LC-Hit Cue: valid cue where following object was a subsequent low confidence hit	OBJ	V	1	0.69155	LC-HIT	 1.9787	0	0.48355
16.001	0.500	Valid LC-Hit Obj: object that was a subsequent low confidence hit and that followed a valid cue	OBJ	V	1	0.69155	LC-HIT	 1.9787	0	0.48355
20.001	1.000	Valid Other Greeble Cue: valid cue where following stimulus was an untested or no response greeble	GRE	V	1	0.76877	UT	UT	UT	UT
22.001	0.500	Valid Other Greeble: stimulus that was an untested or no response greeble and that followed a valid cue	GRE	V	1	0.76877	UT	UT	UT	UT
24.001	1.000	Valid Other Obj Cue: valid cue where following stimulus was an untested or no response object	OBJ	V	1	0.64646	UT	UT	UT	UT
28.001	0.500	Valid Other Obj: stimulus that was an untested or no response object and that followed a valid cue	OBJ	V	1	0.64646	UT	UT	UT	UT
30.002	1.000	Valid Miss Cue: valid cue where following object was a subsequent miss	OBJ	V	1	0.67703	HC-MISS	 1.3204	UT	UT
32.002	0.500	Valid Miss Obj: object that was a subsequent miss and that followed a valid cue	OBJ	V	1	0.67703	HC-MISS	 1.3204	UT	UT
34.001	1.000	Invalid HC-Hit Cue: invalid cue where following object was a subsequent high confidence hit	OBJ	NV	1	0.73089	HC-HIT	  1.028	1	0.65504
40.001	0.500	Invalid HC-Hit Obj: object that was a subsequent high confidence hit and that followed an invalid cue	OBJ	NV	1	0.73089	HC-HIT	  1.028	1	0.65504
42.002	1.000	Valid Other Obj Cue: valid cue where following stimulus was an untested or no response object	OBJ	V	1	0.75178	UT	UT	UT	UT
46.002	0.500	Valid Other Obj: stimulus that was an untested or no response object and that followed a valid cue	OBJ	V	1	0.75178	UT	UT	UT	UT
48.001	1.000	Valid Other Greeble Cue: valid cue where following stimulus was an untested or no response greeble	GRE	V	1	0.82219	UT	UT	UT	UT
50.001	0.500	Valid Other Greeble: stimulus that was an untested or no response greeble and that followed a valid cue	GRE	V	1	0.82219	UT	UT	UT	UT
52.001	1.000	Valid Other Greeble Cue: valid cue where following stimulus was an untested or no response greeble	GRE	V	1	  0.667	UT	UT	UT	UT
58.001	0.500	Valid Other Greeble: stimulus that was an untested or no response greeble and that followed a valid cue	GRE	V	1	  0.667	UT	UT	UT	UT
60.001	1.000	Valid HC-Hit Cue: valid cue where following object was a subsequent high confidence hit	OBJ	V	1	0.57581	HC-HIT	0.92762	1	0.78231
64.001	0.500	Valid HC-Hit Obj: object that was a subsequent high confidence hit and that followed a valid cue	OBJ	V	1	0.57581	HC-HIT	0.92762	1	0.78231
66.001	1.000	Invalid LC-Hit Cue: invalid cue where following object was a subsequent low confidence hit	OBJ	NV	1	0.87723	LC-HIT	 1.2399	1	0.33957
72.001	0.500	Invalid LC-Hit Obj: object that was a subsequent low confidence hit and that followed an invalid cue	OBJ	NV	1	0.87723	LC-HIT	 1.2399	1	0.33957
76.001	1.000	Valid Other Greeble Cue: valid cue where following stimulus was an untested or no response greeble	GRE	V	1	0.71587	UT	UT	UT	UT
78.001	0.500	Valid Other Greeble: stimulus that was an untested or no response greeble and that followed a valid cue	GRE	V	1	0.71587	UT	UT	UT	UT
80.002	1.000	Valid Miss Cue: valid cue where following object was a subsequent miss	OBJ	V	1	0.69649	LC-MISS	 1.2712	UT	UT
84.002	0.500	Valid Miss Obj: object that was a subsequent miss and that followed a valid cue	OBJ	V	1	0.69649	LC-MISS	 1.2712	UT	UT
86.001	1.000	Valid Other Greeble Cue: valid cue where following stimulus was an untested or no response greeble	GRE	V	1	0.69427	UT	UT	UT	UT
90.001	0.500	Valid Other Greeble: stimulus that was an untested or no response greeble and that followed a valid cue	GRE	V	1	0.69427	UT	UT	UT	UT
92.001	1.000	Invalid Other Greeble Cue: invalid cue where following stimulus was an untested or no response greeble	GRE	NV	1	0.73052	UT	UT	UT	UT
98.001	0.500	Invalid Other Greeble: stimulus that was an untested or no response greeble and that followed a invalid cue	GRE	NV	1	0.73052	UT	UT	UT	UT
102.001	1.000	Valid LC-Hit Cue: valid cue where following object was a subsequent low confidence hit	OBJ	V	1	0.63199	LC-HIT	 2.0183	1	1.4744
106.001	0.500	Valid LC-Hit Obj: object that was a subsequent low confidence hit and that followed a valid cue	OBJ	V	1	0.63199	LC-HIT	 2.0183	1	1.4744
108.002	1.000	Valid HC-Hit Cue: valid cue where following object was a subsequent high confidence hit	OBJ	V	1	0.66113	HC-HIT	  1.076	1	0.5515
114.002	0.500	Valid HC-Hit Obj: object that was a subsequent high confidence hit and that followed a valid cue	OBJ	V	1	0.66113	HC-HIT	  1.076	1	0.5515
116.001	1.000	Valid HC-Hit Cue: valid cue where following object was a subsequent high confidence hit	OBJ	V	1	0.84974	HC-HIT	 1.2608	1	0.42861
122.001	0.500	Valid HC-Hit Obj: object that was a subsequent high confidence hit and that followed a valid cue	OBJ	V	1	0.84974	HC-HIT	 1.2608	1	0.42861
124.001	1.000	Invalid Miss Cue: invalid cue where following object was a subsequent miss	OBJ	NV	1	  1.462	HC-MISS	 1.4483	UT	UT
130.001	0.500	Invalid Miss Obj: object that was a subsequent miss and that followed an invalid cue	OBJ	NV	1	  1.462	HC-MISS	 1.4483	UT	UT
132.001	1.000	Valid Other Greeble Cue: valid cue where following stimulus was an untested or no response greeble	GRE	V	1	0.84338	UT	UT	UT	UT
138.001	0.500	Valid Other Greeble: stimulus that was an untested or no response greeble and that followed a valid cue	GRE	V	1	0.84338	UT	UT	UT	UT
140.002	1.000	Invalid HC-Hit Cue: invalid cue where following object was a subsequent high confidence hit	OBJ	NV	1	 0.8323	HC-HIT	 0.8239	1	0.68281
144.002	0.500	Invalid HC-Hit Obj: object that was a subsequent high confidence hit and that followed an invalid cue	OBJ	NV	1	 0.8323	HC-HIT	 0.8239	1	0.68281
150.001	1.000	Valid Other Greeble Cue: valid cue where following stimulus was an untested or no response greeble	GRE	V	1	0.70923	UT	UT	UT	UT
152.001	0.500	Valid Other Greeble: stimulus that was an untested or no response greeble and that followed a valid cue	GRE	V	1	0.70923	UT	UT	UT	UT
154.001	1.000	Valid HC-Hit Cue: valid cue where following object was a subsequent high confidence hit	OBJ	V	1	0.77142	HC-HIT	  1.987	1	1.3878
158.001	0.500	Valid HC-Hit Obj: object that was a subsequent high confidence hit and that followed a valid cue	OBJ	V	1	0.77142	HC-HIT	  1.987	1	1.3878
160.001	1.000	Valid Miss Cue: valid cue where following object was a subsequent miss	OBJ	V	1	0.73705	LC-MISS	 1.8202	UT	UT
162.001	0.500	Valid Miss Obj: object that was a subsequent miss and that followed a valid cue	OBJ	V	1	0.73705	LC-MISS	 1.8202	UT	UT
166.001	1.000	Valid Other Greeble Cue: valid cue where following stimulus was an untested or no response greeble	GRE	V	1	0.71735	UT	UT	UT	UT
172.001	0.500	Valid Other Greeble: stimulus that was an untested or no response greeble and that followed a valid cue	GRE	V	1	0.71735	UT	UT	UT	UT
174.001	1.000	Valid Miss Cue: valid cue where following object was a subsequent miss	OBJ	V	1	0.76968	LC-MISS	  1.492	UT	UT
180.001	0.500	Valid Miss Obj: object that was a subsequent miss and that followed a valid cue	OBJ	V	1	0.76968	LC-MISS	  1.492	UT	UT
182.001	1.000	Invalid LC-Hit Cue: invalid cue where following object was a subsequent low confidence hit	OBJ	NV	1	 0.9115	LC-HIT	 2.0188	1	0.87415
186.001	0.500	Invalid LC-Hit Obj: object that was a subsequent low confidence hit and that followed an invalid cue	OBJ	NV	1	 0.9115	LC-HIT	 2.0188	1	0.87415
190.003	1.000	Valid Miss Cue: valid cue where following object was a subsequent miss	OBJ	V	1	0.67672	LC-MISS	 3.6585	UT	UT
194.003	0.500	Valid Miss Obj: object that was a subsequent miss and that followed a valid cue	OBJ	V	1	0.67672	LC-MISS	 3.6585	UT	UT
196.006	1.000	Valid Other Greeble Cue: valid cue where following stimulus was an untested or no response greeble	GRE	V	1	0.83405	UT	UT	UT	UT
202.006	0.500	Valid Other Greeble: stimulus that was an untested or no response greeble and that followed a valid cue	GRE	V	1	0.83405	UT	UT	UT	UT
204.001	1.000	Valid HC-Hit Cue: valid cue where following object was a subsequent high confidence hit	OBJ	V	1	0.90399	HC-HIT	0.87445	1	0.40464
206.001	0.500	Valid HC-Hit Obj: object that was a subsequent high confidence hit and that followed a valid cue	OBJ	V	1	0.90399	HC-HIT	0.87445	1	0.40464
208.002	1.000	Valid Other Greeble Cue: valid cue where following stimulus was an untested or no response greeble	GRE	V	1	0.77196	UT	UT	UT	UT
214.002	0.500	Valid Other Greeble: stimulus that was an untested or no response greeble and that followed a valid cue	GRE	V	1	0.77196	UT	UT	UT	UT
216.001	1.000	Invalid LC-Hit Cue: invalid cue where following object was a subsequent low confidence hit	OBJ	NV	1	0.93084	LC-HIT	 2.4257	1	1.5839
218.001	0.500	Invalid LC-Hit Obj: object that was a subsequent low confidence hit and that followed an invalid cue	OBJ	NV	1	0.93084	LC-HIT	 2.4257	1	1.5839
222.002	1.000	Valid Miss Cue: valid cue where following object was a subsequent miss	OBJ	V	1	0.68731	LC-MISS	 1.9953	UT	UT
228.002	0.500	Valid Miss Obj: object that was a subsequent miss and that followed a valid cue	OBJ	V	1	0.68731	LC-MISS	 1.9953	UT	UT
230.001	1.000	Valid HC-Hit Cue: valid cue where following object was a subsequent high confidence hit	OBJ	V	1	0.73246	HC-HIT	 2.1261	0	0.4817
234.001	0.500	Valid HC-Hit Obj: object that was a subsequent high confidence hit and that followed a valid cue	OBJ	V	1	0.73246	HC-HIT	 2.1261	0	0.4817
236.002	1.000	Valid HC-Hit Cue: valid cue where following object was a subsequent high confidence hit	OBJ	V	1	0.80178	HC-HIT	 1.4199	1	0.3904
240.002	0.500	Valid HC-Hit Obj: object that was a subsequent high confidence hit and that followed a valid cue	OBJ	V	1	0.80178	HC-HIT	 1.4199	1	0.3904
242.001	1.000	Valid LC-Hit Cue: valid cue where following object was a subsequent low confidence hit	OBJ	V	1	0.76039	LC-HIT	 1.2473	1	0.4258
244.001	0.500	Valid LC-Hit Obj: object that was a subsequent low confidence hit and that followed a valid cue	OBJ	V	1	0.76039	LC-HIT	 1.2473	1	0.4258
246.001	1.000	Valid HC-Hit Cue: valid cue where following object was a subsequent high confidence hit	OBJ	V	1	0.73548	HC-HIT	0.94584	0	1.7535
248.001	0.500	Valid HC-Hit Obj: object that was a subsequent high confidence hit and that followed a valid cue	OBJ	V	1	0.73548	HC-HIT	0.94584	0	1.7535
252.001	1.000	Invalid Other Greeble Cue: invalid cue where following stimulus was an untested or no response greeble	GRE	NV	1	0.76338	UT	UT	UT	UT
258.001	0.500	Invalid Other Greeble: stimulus that was an untested or no response greeble and that followed a invalid cue	GRE	NV	1	0.76338	UT	UT	UT	UT
260.001	1.000	Valid Other Greeble Cue: valid cue where following stimulus was an untested or no response greeble	GRE	V	1	0.67251	UT	UT	UT	UT
264.001	0.500	Valid Other Greeble: stimulus that was an untested or no response greeble and that followed a valid cue	GRE	V	1	0.67251	UT	UT	UT	UT
266.002	1.000	Valid Other Obj Cue: valid cue where following stimulus was an untested or no response object	OBJ	V	1	0.96729	UT	UT	UT	UT
268.002	0.500	Valid Other Obj: stimulus that was an untested or no response object and that followed a valid cue	OBJ	V	1	0.96729	UT	UT	UT	UT
270.001	1.000	Valid Other Greeble Cue: valid cue where following stimulus was an untested or no response greeble	GRE	V	1	0.74047	UT	UT	UT	UT
276.001	0.500	Valid Other Greeble: stimulus that was an untested or no response greeble and that followed a valid cue	GRE	V	1	0.74047	UT	UT	UT	UT
278.001	1.000	Valid Miss Cue: valid cue where following object was a subsequent miss	OBJ	V	1	0.70599	LC-MISS	 1.6649	UT	UT
282.001	0.500	Valid Miss Obj: object that was a subsequent miss and that followed a valid cue	OBJ	V	1	0.70599	LC-MISS	 1.6649	UT	UT
284.001	1.000	Valid LC-Hit Cue: valid cue where following object was a subsequent low confidence hit	OBJ	V	1	0.65648	LC-HIT	 2.0919	0	0.46468
286.001	0.500	Valid LC-Hit Obj: object that was a subsequent low confidence hit and that followed a valid cue	OBJ	V	1	0.65648	LC-HIT	 2.0919	0	0.46468
288.002	1.000	Valid LC-Hit Cue: valid cue where following object was a subsequent low confidence hit	OBJ	V	1	0.56633	LC-HIT	 1.5687	0	0.69162
290.002	0.500	Valid LC-Hit Obj: object that was a subsequent low confidence hit and that followed a valid cue	OBJ	V	1	0.56633	LC-HIT	 1.5687	0	0.69162
292.002	1.000	Valid Other Obj Cue: valid cue where following stimulus was an untested or no response object	OBJ	V	NR	NR	UT	UT	UT	UT
294.002	0.500	Valid Other Obj: stimulus that was an untested or no response object and that followed a valid cue	OBJ	V	NR	NR	UT	UT	UT	UT
296.001	1.000	Valid HC-Hit Cue: valid cue where following object was a subsequent high confidence hit	OBJ	V	1	0.65039	HC-HIT	0.99048	1	0.32195
300.001	0.500	Valid HC-Hit Obj: object that was a subsequent high confidence hit and that followed a valid cue	OBJ	V	1	0.65039	HC-HIT	0.99048	1	0.32195
302.001	1.000	Valid HC-Hit Cue: valid cue where following object was a subsequent high confidence hit	OBJ	V	1	0.72907	HC-HIT	 1.0616	1	0.44894
304.001	0.500	Valid HC-Hit Obj: object that was a subsequent high confidence hit and that followed a valid cue	OBJ	V	1	0.72907	HC-HIT	 1.0616	1	0.44894
310.002	1.000	Valid Miss Cue: valid cue where following object was a subsequent miss	OBJ	V	1	0.56374	LC-MISS	 3.1757	UT	UT
316.002	0.500	Valid Miss Obj: object that was a subsequent miss and that followed a valid cue	OBJ	V	1	0.56374	LC-MISS	 3.1757	UT	UT
318.001	1.000	Valid Miss Cue: valid cue where following object was a subsequent miss	OBJ	V	1	0.65025	LC-MISS	 2.1291	UT	UT
320.001	0.500	Valid Miss Obj: object that was a subsequent miss and that followed a valid cue	OBJ	V	1	0.65025	LC-MISS	 2.1291	UT	UT
322.001	1.000	Valid Other Greeble Cue: valid cue where following stimulus was an untested or no response greeble	GRE	V	1	0.81463	UT	UT	UT	UT
328.001	0.500	Valid Other Greeble: stimulus that was an untested or no response greeble and that followed a valid cue	GRE	V	1	0.81463	UT	UT	UT	UT
332.001	1.000	Valid HC-Hit Cue: valid cue where following object was a subsequent high confidence hit	OBJ	V	1	0.72384	HC-HIT	 1.5019	1	0.84463
336.001	0.500	Valid HC-Hit Obj: object that was a subsequent high confidence hit and that followed a valid cue	OBJ	V	1	0.72384	HC-HIT	 1.5019	1	0.84463
338.002	1.000	Invalid HC-Hit Cue: invalid cue where following object was a subsequent high confidence hit	OBJ	NV	1	0.97682	HC-HIT	 0.9924	1	1.088
344.002	0.500	Invalid HC-Hit Obj: object that was a subsequent high confidence hit and that followed an invalid cue	OBJ	NV	1	0.97682	HC-HIT	 0.9924	1	1.088
348.002	1.000	Valid Other Greeble Cue: valid cue where following stimulus was an untested or no response greeble	GRE	V	1	0.68478	UT	UT	UT	UT
352.002	0.500	Valid Other Greeble: stimulus that was an untested or no response greeble and that followed a valid cue	GRE	V	1	0.68478	UT	UT	UT	UT
354.001	1.000	Valid LC-Hit Cue: valid cue where following object was a subsequent low confidence hit	OBJ	V	1	0.74115	LC-HIT	 1.9833	1	0.68632
356.001	0.500	Valid LC-Hit Obj: object that was a subsequent low confidence hit and that followed a valid cue	OBJ	V	1	0.74115	LC-HIT	 1.9833	1	0.68632
358.001	1.000	Valid HC-Hit Cue: valid cue where following object was a subsequent high confidence hit	OBJ	V	1	0.62496	HC-HIT	 1.3986	1	0.41132
362.001	0.500	Valid HC-Hit Obj: object that was a subsequent high confidence hit and that followed a valid cue	OBJ	V	1	0.62496	HC-HIT	 1.3986	1	0.41132
