onset	duration	trial_type	Object_Cond	Validity_Cond	Obj_Accuracy	Obj_Acc_RT	Subseq_Recog	Subseq_Recog_RT	Subseq_Source_Mem_Acc	Subseq_Source_Mem_Acc_RT
4.000	1.000	Valid Other Greeble Cue: valid cue where following stimulus was an untested or no response greeble	GRE	V	1	0.737	UT	UT	UT	UT
10.000	0.500	Valid Other Greeble: stimulus that was an untested or no response greeble and that followed a valid cue	GRE	V	1	0.737	UT	UT	UT	UT
12.002	1.000	Valid HC-Hit Cue: valid cue where following object was a subsequent high confidence hit	OBJ	V	1	0.669	HC-HIT	 1.2422	1	0.38788
18.002	0.500	Valid HC-Hit Obj: object that was a subsequent high confidence hit and that followed a valid cue	OBJ	V	1	0.669	HC-HIT	 1.2422	1	0.38788
20.002	1.000	Valid LC-Hit Cue: valid cue where following object was a subsequent low confidence hit	OBJ	V	1	0.628	LC-HIT	 2.2201	1	0.98215
22.002	0.500	Valid LC-Hit Obj: object that was a subsequent low confidence hit and that followed a valid cue	OBJ	V	1	0.628	LC-HIT	 2.2201	1	0.98215
24.001	1.000	Valid Other Greeble Cue: valid cue where following stimulus was an untested or no response greeble	GRE	V	1	0.657	UT	UT	UT	UT
30.001	0.500	Valid Other Greeble: stimulus that was an untested or no response greeble and that followed a valid cue	GRE	V	1	0.657	UT	UT	UT	UT
32.001	1.000	Valid Other Obj Cue: valid cue where following stimulus was an untested or no response object	OBJ	V	1	0.679	UT	UT	UT	UT
36.001	0.500	Valid Other Obj: stimulus that was an untested or no response object and that followed a valid cue	OBJ	V	1	0.679	UT	UT	UT	UT
38.002	1.000	Invalid HC-Hit Cue: invalid cue where following object was a subsequent high confidence hit	OBJ	NV	1	0.621	HC-HIT	 1.0796	1	0.36763
40.002	0.500	Invalid HC-Hit Obj: object that was a subsequent high confidence hit and that followed an invalid cue	OBJ	NV	1	0.621	HC-HIT	 1.0796	1	0.36763
44.002	1.000	Valid Other Greeble Cue: valid cue where following stimulus was an untested or no response greeble	GRE	V	1	0.706	UT	UT	UT	UT
46.002	0.500	Valid Other Greeble: stimulus that was an untested or no response greeble and that followed a valid cue	GRE	V	1	0.706	UT	UT	UT	UT
48.001	1.000	Valid Miss Cue: valid cue where following object was a subsequent miss	OBJ	V	1	0.624	HC-MISS	 1.5778	UT	UT
52.001	0.500	Valid Miss Obj: object that was a subsequent miss and that followed a valid cue	OBJ	V	1	0.624	HC-MISS	 1.5778	UT	UT
56.002	1.000	Valid LC-Hit Cue: valid cue where following object was a subsequent low confidence hit	OBJ	V	1	0.557	LC-HIT	 2.3112	1	0.6905
60.002	0.500	Valid LC-Hit Obj: object that was a subsequent low confidence hit and that followed a valid cue	OBJ	V	1	0.557	LC-HIT	 2.3112	1	0.6905
62.001	1.000	Invalid LC-Hit Cue: invalid cue where following object was a subsequent low confidence hit	OBJ	NV	1	0.922	LC-HIT	 2.5548	1	0.54527
68.001	0.500	Invalid LC-Hit Obj: object that was a subsequent low confidence hit and that followed an invalid cue	OBJ	NV	1	0.922	LC-HIT	 2.5548	1	0.54527
70.001	1.000	Valid Other Greeble Cue: valid cue where following stimulus was an untested or no response greeble	GRE	V	1	0.687	UT	UT	UT	UT
76.001	0.500	Valid Other Greeble: stimulus that was an untested or no response greeble and that followed a valid cue	GRE	V	1	0.687	UT	UT	UT	UT
80.002	1.000	Valid Miss Cue: valid cue where following object was a subsequent miss	OBJ	V	1	0.578	LC-MISS	 1.0049	UT	UT
86.002	0.500	Valid Miss Obj: object that was a subsequent miss and that followed a valid cue	OBJ	V	1	0.578	LC-MISS	 1.0049	UT	UT
88.002	1.000	Valid Miss Cue: valid cue where following object was a subsequent miss	OBJ	V	1	0.536	LC-MISS	 2.0631	UT	UT
92.002	0.500	Valid Miss Obj: object that was a subsequent miss and that followed a valid cue	OBJ	V	1	0.536	LC-MISS	 2.0631	UT	UT
94.001	1.000	Valid Other Obj Cue: valid cue where following stimulus was an untested or no response object	OBJ	V	1	0.509	UT	UT	UT	UT
100.001	0.500	Valid Other Obj: stimulus that was an untested or no response object and that followed a valid cue	OBJ	V	1	0.509	UT	UT	UT	UT
102.001	1.000	Valid LC-Hit Cue: valid cue where following object was a subsequent low confidence hit	OBJ	V	1	0.553	LC-HIT	 1.9605	0	1.0332
108.001	0.500	Valid LC-Hit Obj: object that was a subsequent low confidence hit and that followed a valid cue	OBJ	V	1	0.553	LC-HIT	 1.9605	0	1.0332
112.002	1.000	Valid Other Greeble Cue: valid cue where following stimulus was an untested or no response greeble	GRE	V	1	0.718	UT	UT	UT	UT
118.002	0.500	Valid Other Greeble: stimulus that was an untested or no response greeble and that followed a valid cue	GRE	V	1	0.718	UT	UT	UT	UT
120.002	1.000	Invalid Miss Cue: invalid cue where following object was a subsequent miss	OBJ	NV	1	0.931	LC-MISS	 1.0748	UT	UT
124.002	0.500	Invalid Miss Obj: object that was a subsequent miss and that followed an invalid cue	OBJ	NV	1	0.931	LC-MISS	 1.0748	UT	UT
126.002	1.000	Valid LC-Hit Cue: valid cue where following object was a subsequent low confidence hit	OBJ	V	1	0.633	LC-HIT	 1.7942	1	0.53071
132.002	0.500	Valid LC-Hit Obj: object that was a subsequent low confidence hit and that followed a valid cue	OBJ	V	1	0.633	LC-HIT	 1.7942	1	0.53071
136.001	1.000	Valid Miss Cue: valid cue where following object was a subsequent miss	OBJ	V	1	0.597	LC-MISS	 2.2981	UT	UT
138.001	0.500	Valid Miss Obj: object that was a subsequent miss and that followed a valid cue	OBJ	V	1	0.597	LC-MISS	 2.2981	UT	UT
140.002	1.000	Valid LC-Hit Cue: valid cue where following object was a subsequent low confidence hit	OBJ	V	1	0.586	LC-HIT	 1.3075	1	0.55799
146.002	0.500	Valid LC-Hit Obj: object that was a subsequent low confidence hit and that followed a valid cue	OBJ	V	1	0.586	LC-HIT	 1.3075	1	0.55799
148.001	1.000	Valid Other Greeble Cue: valid cue where following stimulus was an untested or no response greeble	GRE	V	1	0.775	UT	UT	UT	UT
154.001	0.500	Valid Other Greeble: stimulus that was an untested or no response greeble and that followed a valid cue	GRE	V	1	0.775	UT	UT	UT	UT
156.001	1.000	Valid Other Obj Cue: valid cue where following stimulus was an untested or no response object	OBJ	V	1	0.612	UT	UT	UT	UT
162.001	0.500	Valid Other Obj: stimulus that was an untested or no response object and that followed a valid cue	OBJ	V	1	0.612	UT	UT	UT	UT
164.001	1.000	Valid LC-Hit Cue: valid cue where following object was a subsequent low confidence hit	OBJ	V	1	0.682	LC-HIT	 2.0979	1	1.9493
168.001	0.500	Valid LC-Hit Obj: object that was a subsequent low confidence hit and that followed a valid cue	OBJ	V	1	0.682	LC-HIT	 2.0979	1	1.9493
170.002	1.000	Invalid Miss Cue: invalid cue where following object was a subsequent miss	OBJ	NV	1	0.736	HC-MISS	  1.725	UT	UT
172.002	0.500	Invalid Miss Obj: object that was a subsequent miss and that followed an invalid cue	OBJ	NV	1	0.736	HC-MISS	  1.725	UT	UT
178.002	1.000	Valid HC-Hit Cue: valid cue where following object was a subsequent high confidence hit	OBJ	V	1	0.515	HC-HIT	 1.5432	1	0.36523
182.002	0.500	Valid HC-Hit Obj: object that was a subsequent high confidence hit and that followed a valid cue	OBJ	V	1	0.515	HC-HIT	 1.5432	1	0.36523
184.002	1.000	Valid Other Greeble Cue: valid cue where following stimulus was an untested or no response greeble	GRE	V	1	0.738	UT	UT	UT	UT
186.002	0.500	Valid Other Greeble: stimulus that was an untested or no response greeble and that followed a valid cue	GRE	V	1	0.738	UT	UT	UT	UT
188.002	1.000	Valid HC-Hit Cue: valid cue where following object was a subsequent high confidence hit	OBJ	V	1	0.794	HC-HIT	0.86623	0	2.1085
190.002	0.500	Valid HC-Hit Obj: object that was a subsequent high confidence hit and that followed a valid cue	OBJ	V	1	0.794	HC-HIT	0.86623	0	2.1085
192.002	1.000	Valid Other Obj Cue: valid cue where following stimulus was an untested or no response object	OBJ	V	1	0.510	UT	UT	UT	UT
198.002	0.500	Valid Other Obj: stimulus that was an untested or no response object and that followed a valid cue	OBJ	V	1	0.510	UT	UT	UT	UT
200.001	1.000	Invalid Other Greeble Cue: invalid cue where following stimulus was an untested or no response greeble	GRE	NV	1	0.803	UT	UT	UT	UT
204.001	0.500	Invalid Other Greeble: stimulus that was an untested or no response greeble and that followed a invalid cue	GRE	NV	1	0.803	UT	UT	UT	UT
206.002	1.000	Valid Miss Cue: valid cue where following object was a subsequent miss	OBJ	V	1	0.552	LC-MISS	 3.9097	UT	UT
210.002	0.500	Valid Miss Obj: object that was a subsequent miss and that followed a valid cue	OBJ	V	1	0.552	LC-MISS	 3.9097	UT	UT
216.002	1.000	Valid LC-Hit Cue: valid cue where following object was a subsequent low confidence hit	OBJ	V	1	0.573	LC-HIT	 1.3995	0	0.91322
218.002	0.500	Valid LC-Hit Obj: object that was a subsequent low confidence hit and that followed a valid cue	OBJ	V	1	0.573	LC-HIT	 1.3995	0	0.91322
220.001	1.000	Invalid HC-Hit Cue: invalid cue where following object was a subsequent high confidence hit	OBJ	NV	1	0.802	HC-HIT	 1.1042	0	0.86253
226.001	0.500	Invalid HC-Hit Obj: object that was a subsequent high confidence hit and that followed an invalid cue	OBJ	NV	1	0.802	HC-HIT	 1.1042	0	0.86253
228.001	1.000	Valid HC-Hit Cue: valid cue where following object was a subsequent high confidence hit	OBJ	V	1	0.680	HC-HIT	 1.2838	1	0.39018
232.001	0.500	Valid HC-Hit Obj: object that was a subsequent high confidence hit and that followed a valid cue	OBJ	V	1	0.680	HC-HIT	 1.2838	1	0.39018
234.001	1.000	Valid Other Greeble Cue: valid cue where following stimulus was an untested or no response greeble	GRE	V	1	0.757	UT	UT	UT	UT
238.001	0.500	Valid Other Greeble: stimulus that was an untested or no response greeble and that followed a valid cue	GRE	V	1	0.757	UT	UT	UT	UT
240.001	1.000	Valid HC-Hit Cue: valid cue where following object was a subsequent high confidence hit	OBJ	V	1	0.941	HC-HIT	 0.9186	1	0.31919
242.001	0.500	Valid HC-Hit Obj: object that was a subsequent high confidence hit and that followed a valid cue	OBJ	V	1	0.941	HC-HIT	 0.9186	1	0.31919
244.002	1.000	Valid HC-Hit Cue: valid cue where following object was a subsequent high confidence hit	OBJ	V	1	0.786	HC-HIT	0.99618	1	0.35275
248.002	0.500	Valid HC-Hit Obj: object that was a subsequent high confidence hit and that followed a valid cue	OBJ	V	1	0.786	HC-HIT	0.99618	1	0.35275
250.001	1.000	Valid HC-Hit Cue: valid cue where following object was a subsequent high confidence hit	OBJ	V	1	0.743	HC-HIT	0.97372	1	0.32569
252.001	0.500	Valid HC-Hit Obj: object that was a subsequent high confidence hit and that followed a valid cue	OBJ	V	1	0.743	HC-HIT	0.97372	1	0.32569
254.001	1.000	Valid Other Greeble Cue: valid cue where following stimulus was an untested or no response greeble	GRE	V	1	0.759	UT	UT	UT	UT
256.002	0.500	Valid Other Greeble: stimulus that was an untested or no response greeble and that followed a valid cue	GRE	V	1	0.759	UT	UT	UT	UT
258.001	1.000	Valid HC-Hit Cue: valid cue where following object was a subsequent high confidence hit	OBJ	V	1	0.611	HC-HIT	  1.107	0	0.41919
264.001	0.500	Valid HC-Hit Obj: object that was a subsequent high confidence hit and that followed a valid cue	OBJ	V	1	0.611	HC-HIT	  1.107	0	0.41919
266.001	1.000	Invalid HC-Hit Cue: invalid cue where following object was a subsequent high confidence hit	OBJ	NV	1	0.889	HC-HIT	 1.2531	0	1.2946
270.001	0.500	Invalid HC-Hit Obj: object that was a subsequent high confidence hit and that followed an invalid cue	OBJ	NV	1	0.889	HC-HIT	 1.2531	0	1.2946
272.002	1.000	Valid Other Obj Cue: valid cue where following stimulus was an untested or no response object	OBJ	V	1	0.704	UT	UT	UT	UT
274.002	0.500	Valid Other Obj: stimulus that was an untested or no response object and that followed a valid cue	OBJ	V	1	0.704	UT	UT	UT	UT
276.001	1.000	Valid Miss Cue: valid cue where following object was a subsequent miss	OBJ	V	1	0.574	LC-MISS	 2.6671	UT	UT
280.001	0.500	Valid Miss Obj: object that was a subsequent miss and that followed a valid cue	OBJ	V	1	0.574	LC-MISS	 2.6671	UT	UT
282.001	1.000	Valid Other Greeble Cue: valid cue where following stimulus was an untested or no response greeble	GRE	V	1	0.795	UT	UT	UT	UT
284.001	0.500	Valid Other Greeble: stimulus that was an untested or no response greeble and that followed a valid cue	GRE	V	1	0.795	UT	UT	UT	UT
286.002	1.000	Valid LC-Hit Cue: valid cue where following object was a subsequent low confidence hit	OBJ	V	1	0.721	LC-HIT	 1.3732	0	0.36996
288.002	0.500	Valid LC-Hit Obj: object that was a subsequent low confidence hit and that followed a valid cue	OBJ	V	1	0.721	LC-HIT	 1.3732	0	0.36996
292.002	1.000	Invalid LC-Hit Cue: invalid cue where following object was a subsequent low confidence hit	OBJ	NV	1	0.933	LC-HIT	 1.4815	1	1.7289
298.002	0.500	Invalid LC-Hit Obj: object that was a subsequent low confidence hit and that followed an invalid cue	OBJ	NV	1	0.933	LC-HIT	 1.4815	1	1.7289
300.001	1.000	Valid Other Greeble Cue: valid cue where following stimulus was an untested or no response greeble	GRE	V	1	0.731	UT	UT	UT	UT
306.001	0.500	Valid Other Greeble: stimulus that was an untested or no response greeble and that followed a valid cue	GRE	V	1	0.731	UT	UT	UT	UT
310.002	1.000	Valid LC-Hit Cue: valid cue where following object was a subsequent low confidence hit	OBJ	V	1	0.607	LC-HIT	 2.1446	1	0.42795
314.002	0.500	Valid LC-Hit Obj: object that was a subsequent low confidence hit and that followed a valid cue	OBJ	V	1	0.607	LC-HIT	 2.1446	1	0.42795
316.001	1.000	Valid Other Greeble Cue: valid cue where following stimulus was an untested or no response greeble	GRE	V	1	0.718	UT	UT	UT	UT
318.001	0.500	Valid Other Greeble: stimulus that was an untested or no response greeble and that followed a valid cue	GRE	V	1	0.718	UT	UT	UT	UT
320.002	1.000	Valid LC-Hit Cue: valid cue where following object was a subsequent low confidence hit	OBJ	V	1	0.772	LC-HIT	 1.0141	1	0.78661
322.002	0.500	Valid LC-Hit Obj: object that was a subsequent low confidence hit and that followed a valid cue	OBJ	V	1	0.772	LC-HIT	 1.0141	1	0.78661
326.001	1.000	Invalid Other Greeble Cue: invalid cue where following stimulus was an untested or no response greeble	GRE	NV	1	0.866	UT	UT	UT	UT
328.001	0.500	Invalid Other Greeble: stimulus that was an untested or no response greeble and that followed a invalid cue	GRE	NV	1	0.866	UT	UT	UT	UT
330.001	1.000	Invalid Miss Cue: invalid cue where following object was a subsequent miss	OBJ	NV	1	0.711	LC-MISS	 2.6386	UT	UT
334.001	0.500	Invalid Miss Obj: object that was a subsequent miss and that followed an invalid cue	OBJ	NV	1	0.711	LC-MISS	 2.6386	UT	UT
338.001	1.000	Valid Other Greeble Cue: valid cue where following stimulus was an untested or no response greeble	GRE	V	1	0.755	UT	UT	UT	UT
342.001	0.500	Valid Other Greeble: stimulus that was an untested or no response greeble and that followed a valid cue	GRE	V	1	0.755	UT	UT	UT	UT
344.001	1.000	Valid LC-Hit Cue: valid cue where following object was a subsequent low confidence hit	OBJ	V	1	0.683	LC-HIT	 2.3271	1	1.015
346.001	0.500	Valid LC-Hit Obj: object that was a subsequent low confidence hit and that followed a valid cue	OBJ	V	1	0.683	LC-HIT	 2.3271	1	1.015
348.001	1.000	Valid LC-Hit Cue: valid cue where following object was a subsequent low confidence hit	OBJ	V	1	0.465	LC-HIT	 1.8741	1	0.54394
352.001	0.500	Valid LC-Hit Obj: object that was a subsequent low confidence hit and that followed a valid cue	OBJ	V	1	0.465	LC-HIT	 1.8741	1	0.54394
356.002	1.000	Valid Other Greeble Cue: valid cue where following stimulus was an untested or no response greeble	GRE	V	1	0.693	UT	UT	UT	UT
360.002	0.500	Valid Other Greeble: stimulus that was an untested or no response greeble and that followed a valid cue	GRE	V	1	0.693	UT	UT	UT	UT
362.001	1.000	Valid LC-Hit Cue: valid cue where following object was a subsequent low confidence hit	OBJ	V	1	0.723	LC-HIT	 2.1314	0	0.63882
364.001	0.500	Valid LC-Hit Obj: object that was a subsequent low confidence hit and that followed a valid cue	OBJ	V	1	0.723	LC-HIT	 2.1314	0	0.63882
