onset	duration	trial_type	Object_Cond	Validity_Cond	Obj_Accuracy	Obj_Acc_RT	Subseq_Recog	Subseq_Recog_RT	Subseq_Source_Mem_Acc	Subseq_Source_Mem_Acc_RT
4.000	1.000	Valid Other Obj Cue: valid cue where following stimulus was an untested or no response object	OBJ	V	1	0.526	UT	UT	UT	UT
8.000	0.500	Valid Other Obj: stimulus that was an untested or no response object and that followed a valid cue	OBJ	V	1	0.526	UT	UT	UT	UT
10.002	1.000	Valid Other Greeble Cue: valid cue where following stimulus was an untested or no response greeble	GRE	V	1	0.716	UT	UT	UT	UT
14.002	0.500	Valid Other Greeble: stimulus that was an untested or no response greeble and that followed a valid cue	GRE	V	1	0.716	UT	UT	UT	UT
16.002	1.000	Valid Miss Cue: valid cue where following object was a subsequent miss	OBJ	V	1	0.610	LC-MISS	 2.0072	UT	UT
20.002	0.500	Valid Miss Obj: object that was a subsequent miss and that followed a valid cue	OBJ	V	1	0.610	LC-MISS	 2.0072	UT	UT
22.002	1.000	Valid HC-Hit Cue: valid cue where following object was a subsequent high confidence hit	OBJ	V	1	0.575	HC-HIT	 1.2624	1	0.43139
28.002	0.500	Valid HC-Hit Obj: object that was a subsequent high confidence hit and that followed a valid cue	OBJ	V	1	0.575	HC-HIT	 1.2624	1	0.43139
30.001	1.000	Valid LC-Hit Cue: valid cue where following object was a subsequent low confidence hit	OBJ	V	1	0.757	LC-HIT	 2.2322	1	0.45394
32.001	0.500	Valid LC-Hit Obj: object that was a subsequent low confidence hit and that followed a valid cue	OBJ	V	1	0.757	LC-HIT	 2.2322	1	0.45394
34.001	1.000	Invalid HC-Hit Cue: invalid cue where following object was a subsequent high confidence hit	OBJ	NV	1	0.778	HC-HIT	 1.0586	1	0.73914
40.001	0.500	Invalid HC-Hit Obj: object that was a subsequent high confidence hit and that followed an invalid cue	OBJ	NV	1	0.778	HC-HIT	 1.0586	1	0.73914
42.002	1.000	Valid Other Greeble Cue: valid cue where following stimulus was an untested or no response greeble	GRE	V	1	0.655	UT	UT	UT	UT
46.002	0.500	Valid Other Greeble: stimulus that was an untested or no response greeble and that followed a valid cue	GRE	V	1	0.655	UT	UT	UT	UT
48.002	1.000	Valid Miss Cue: valid cue where following object was a subsequent miss	OBJ	V	1	0.589	LC-MISS	 1.5523	UT	UT
50.002	0.500	Valid Miss Obj: object that was a subsequent miss and that followed a valid cue	OBJ	V	1	0.589	LC-MISS	 1.5523	UT	UT
52.002	1.000	Valid LC-Hit Cue: valid cue where following object was a subsequent low confidence hit	OBJ	V	1	0.581	LC-HIT	  2.058	1	1.1501
54.002	0.500	Valid LC-Hit Obj: object that was a subsequent low confidence hit and that followed a valid cue	OBJ	V	1	0.581	LC-HIT	  2.058	1	1.1501
58.001	1.000	Invalid Miss Cue: invalid cue where following object was a subsequent miss	OBJ	NV	1	0.618	HC-MISS	 1.7003	UT	UT
62.001	0.500	Invalid Miss Obj: object that was a subsequent miss and that followed an invalid cue	OBJ	NV	1	0.618	HC-MISS	 1.7003	UT	UT
64.001	1.000	Valid Miss Cue: valid cue where following object was a subsequent miss	OBJ	V	1	0.527	HC-MISS	 1.1413	UT	UT
66.001	0.500	Valid Miss Obj: object that was a subsequent miss and that followed a valid cue	OBJ	V	1	0.527	HC-MISS	 1.1413	UT	UT
68.001	1.000	Valid LC-Hit Cue: valid cue where following object was a subsequent low confidence hit	OBJ	V	1	0.516	LC-HIT	 2.6897	1	1.1939
74.001	0.500	Valid LC-Hit Obj: object that was a subsequent low confidence hit and that followed a valid cue	OBJ	V	1	0.516	LC-HIT	 2.6897	1	1.1939
76.001	1.000	Valid Other Greeble Cue: valid cue where following stimulus was an untested or no response greeble	GRE	V	1	0.713	UT	UT	UT	UT
82.001	0.500	Valid Other Greeble: stimulus that was an untested or no response greeble and that followed a valid cue	GRE	V	1	0.713	UT	UT	UT	UT
84.001	1.000	Valid Miss Cue: valid cue where following object was a subsequent miss	OBJ	V	1	0.613	LC-MISS	 2.2607	UT	UT
90.001	0.500	Valid Miss Obj: object that was a subsequent miss and that followed a valid cue	OBJ	V	1	0.613	LC-MISS	 2.2607	UT	UT
92.001	1.000	Invalid HC-Hit Cue: invalid cue where following object was a subsequent high confidence hit	OBJ	NV	1	0.731	HC-HIT	0.93698	1	0.27582
98.001	0.500	Invalid HC-Hit Obj: object that was a subsequent high confidence hit and that followed an invalid cue	OBJ	NV	1	0.731	HC-HIT	0.93698	1	0.27582
102.001	1.000	Invalid Miss Cue: invalid cue where following object was a subsequent miss	OBJ	NV	1	0.672	LC-MISS	 2.5617	UT	UT
104.001	0.500	Invalid Miss Obj: object that was a subsequent miss and that followed an invalid cue	OBJ	NV	1	0.672	LC-MISS	 2.5617	UT	UT
106.001	1.000	Valid HC-Hit Cue: valid cue where following object was a subsequent high confidence hit	OBJ	V	1	0.679	HC-HIT	0.82359	1	0.48588
108.001	0.500	Valid HC-Hit Obj: object that was a subsequent high confidence hit and that followed a valid cue	OBJ	V	1	0.679	HC-HIT	0.82359	1	0.48588
112.001	1.000	Valid Other Greeble Cue: valid cue where following stimulus was an untested or no response greeble	GRE	V	1	0.692	UT	UT	UT	UT
114.001	0.500	Valid Other Greeble: stimulus that was an untested or no response greeble and that followed a valid cue	GRE	V	1	0.692	UT	UT	UT	UT
116.001	1.000	Valid LC-Hit Cue: valid cue where following object was a subsequent low confidence hit	OBJ	V	1	0.707	LC-HIT	 1.7003	1	0.60097
118.001	0.500	Valid LC-Hit Obj: object that was a subsequent low confidence hit and that followed a valid cue	OBJ	V	1	0.707	LC-HIT	 1.7003	1	0.60097
120.001	1.000	Valid Other Greeble Cue: valid cue where following stimulus was an untested or no response greeble	GRE	V	1	0.688	UT	UT	UT	UT
126.001	0.500	Valid Other Greeble: stimulus that was an untested or no response greeble and that followed a valid cue	GRE	V	1	0.688	UT	UT	UT	UT
130.001	1.000	Valid HC-Hit Cue: valid cue where following object was a subsequent high confidence hit	OBJ	V	1	0.565	HC-HIT	 1.1493	1	0.91421
132.001	0.500	Valid HC-Hit Obj: object that was a subsequent high confidence hit and that followed a valid cue	OBJ	V	1	0.565	HC-HIT	 1.1493	1	0.91421
136.002	1.000	Valid HC-Hit Cue: valid cue where following object was a subsequent high confidence hit	OBJ	V	1	0.586	HC-HIT	 1.5433	1	0.33048
140.002	0.500	Valid HC-Hit Obj: object that was a subsequent high confidence hit and that followed a valid cue	OBJ	V	1	0.586	HC-HIT	 1.5433	1	0.33048
142.002	1.000	Valid LC-Hit Cue: valid cue where following object was a subsequent low confidence hit	OBJ	V	1	0.567	LC-HIT	 1.3433	1	0.35036
148.002	0.500	Valid LC-Hit Obj: object that was a subsequent low confidence hit and that followed a valid cue	OBJ	V	1	0.567	LC-HIT	 1.3433	1	0.35036
150.001	1.000	Valid Other Greeble Cue: valid cue where following stimulus was an untested or no response greeble	GRE	V	1	0.667	UT	UT	UT	UT
156.001	0.500	Valid Other Greeble: stimulus that was an untested or no response greeble and that followed a valid cue	GRE	V	1	0.667	UT	UT	UT	UT
158.001	1.000	Valid Other Greeble Cue: valid cue where following stimulus was an untested or no response greeble	GRE	V	1	0.728	UT	UT	UT	UT
164.001	0.500	Valid Other Greeble: stimulus that was an untested or no response greeble and that followed a valid cue	GRE	V	1	0.728	UT	UT	UT	UT
166.001	1.000	Valid Other Greeble Cue: valid cue where following stimulus was an untested or no response greeble	GRE	V	1	0.735	UT	UT	UT	UT
168.001	0.500	Valid Other Greeble: stimulus that was an untested or no response greeble and that followed a valid cue	GRE	V	1	0.735	UT	UT	UT	UT
170.002	1.000	Invalid Miss Cue: invalid cue where following object was a subsequent miss	OBJ	NV	1	0.837	HC-MISS	 1.8959	UT	UT
174.002	0.500	Invalid Miss Obj: object that was a subsequent miss and that followed an invalid cue	OBJ	NV	1	0.837	HC-MISS	 1.8959	UT	UT
180.001	1.000	Valid HC-Hit Cue: valid cue where following object was a subsequent high confidence hit	OBJ	V	1	0.537	HC-HIT	 1.0809	0	0.76308
184.001	0.500	Valid HC-Hit Obj: object that was a subsequent high confidence hit and that followed a valid cue	OBJ	V	1	0.537	HC-HIT	 1.0809	0	0.76308
186.001	1.000	Valid Other Greeble Cue: valid cue where following stimulus was an untested or no response greeble	GRE	V	1	0.783	UT	UT	UT	UT
188.001	0.500	Valid Other Greeble: stimulus that was an untested or no response greeble and that followed a valid cue	GRE	V	1	0.783	UT	UT	UT	UT
190.002	1.000	Invalid Other Greeble Cue: invalid cue where following stimulus was an untested or no response greeble	GRE	NV	1	0.740	UT	UT	UT	UT
194.002	0.500	Invalid Other Greeble: stimulus that was an untested or no response greeble and that followed a invalid cue	GRE	NV	1	0.740	UT	UT	UT	UT
196.002	1.000	Valid Miss Cue: valid cue where following object was a subsequent miss	OBJ	V	1	0.715	LC-MISS	 1.2793	UT	UT
198.002	0.500	Valid Miss Obj: object that was a subsequent miss and that followed a valid cue	OBJ	V	1	0.715	LC-MISS	 1.2793	UT	UT
200.001	1.000	Valid Other Obj Cue: valid cue where following stimulus was an untested or no response object	OBJ	V	1	0.535	UT	UT	UT	UT
206.001	0.500	Valid Other Obj: stimulus that was an untested or no response object and that followed a valid cue	OBJ	V	1	0.535	UT	UT	UT	UT
208.001	1.000	Valid HC-Hit Cue: valid cue where following object was a subsequent high confidence hit	OBJ	V	1	0.549	HC-HIT	 1.5049	0	2.1522
212.001	0.500	Valid HC-Hit Obj: object that was a subsequent high confidence hit and that followed a valid cue	OBJ	V	1	0.549	HC-HIT	 1.5049	0	2.1522
214.002	1.000	Valid Other Greeble Cue: valid cue where following stimulus was an untested or no response greeble	GRE	V	1	0.706	UT	UT	UT	UT
220.002	0.500	Valid Other Greeble: stimulus that was an untested or no response greeble and that followed a valid cue	GRE	V	1	0.706	UT	UT	UT	UT
222.002	1.000	Valid HC-Hit Cue: valid cue where following object was a subsequent high confidence hit	OBJ	V	1	0.656	HC-HIT	   1.61	1	0.42098
224.002	0.500	Valid HC-Hit Obj: object that was a subsequent high confidence hit and that followed a valid cue	OBJ	V	1	0.656	HC-HIT	   1.61	1	0.42098
230.002	1.000	Valid Other Greeble Cue: valid cue where following stimulus was an untested or no response greeble	GRE	V	1	0.565	UT	UT	UT	UT
232.002	0.500	Valid Other Greeble: stimulus that was an untested or no response greeble and that followed a valid cue	GRE	V	1	0.565	UT	UT	UT	UT
234.001	1.000	Invalid Miss Cue: invalid cue where following object was a subsequent miss	OBJ	NV	1	1.131	HC-MISS	0.95043	UT	UT
238.001	0.500	Invalid Miss Obj: object that was a subsequent miss and that followed an invalid cue	OBJ	NV	1	1.131	HC-MISS	0.95043	UT	UT
242.002	1.000	Valid Other Greeble Cue: valid cue where following stimulus was an untested or no response greeble	GRE	V	0	0.694	UT	UT	UT	UT
248.002	0.500	Valid Other Greeble: stimulus that was an untested or no response greeble and that followed a valid cue	GRE	V	0	0.694	UT	UT	UT	UT
252.002	1.000	Valid Other Obj Cue: valid cue where following stimulus was an untested or no response object	OBJ	V	1	0.812	UT	UT	UT	UT
256.002	0.500	Valid Other Obj: stimulus that was an untested or no response object and that followed a valid cue	OBJ	V	1	0.812	UT	UT	UT	UT
258.001	1.000	Valid LC-Hit Cue: valid cue where following object was a subsequent low confidence hit	OBJ	V	1	0.905	LC-HIT	 1.6971	1	1.7428
260.001	0.500	Valid LC-Hit Obj: object that was a subsequent low confidence hit and that followed a valid cue	OBJ	V	1	0.905	LC-HIT	 1.6971	1	1.7428
262.001	1.000	Valid Miss Cue: valid cue where following object was a subsequent miss	OBJ	V	1	0.631	LC-MISS	 1.7178	UT	UT
266.001	0.500	Valid Miss Obj: object that was a subsequent miss and that followed a valid cue	OBJ	V	1	0.631	LC-MISS	 1.7178	UT	UT
270.002	1.000	Valid Other Obj Cue: valid cue where following stimulus was an untested or no response object	OBJ	V	1	0.571	UT	UT	UT	UT
276.002	0.500	Valid Other Obj: stimulus that was an untested or no response object and that followed a valid cue	OBJ	V	1	0.571	UT	UT	UT	UT
278.001	1.000	Valid LC-Hit Cue: valid cue where following object was a subsequent low confidence hit	OBJ	V	1	0.616	LC-HIT	 1.5306	0	0.48619
284.001	0.500	Valid LC-Hit Obj: object that was a subsequent low confidence hit and that followed a valid cue	OBJ	V	1	0.616	LC-HIT	 1.5306	0	0.48619
288.001	1.000	Invalid Other Greeble Cue: invalid cue where following stimulus was an untested or no response greeble	GRE	NV	1	0.741	UT	UT	UT	UT
290.001	0.500	Invalid Other Greeble: stimulus that was an untested or no response greeble and that followed a invalid cue	GRE	NV	1	0.741	UT	UT	UT	UT
292.002	1.000	Valid Miss Cue: valid cue where following object was a subsequent miss	OBJ	V	1	0.732	LC-MISS	 2.1969	UT	UT
296.002	0.500	Valid Miss Obj: object that was a subsequent miss and that followed a valid cue	OBJ	V	1	0.732	LC-MISS	 2.1969	UT	UT
298.001	1.000	Valid Miss Cue: valid cue where following object was a subsequent miss	OBJ	V	1	0.618	LC-MISS	 1.2938	UT	UT
302.001	0.500	Valid Miss Obj: object that was a subsequent miss and that followed a valid cue	OBJ	V	1	0.618	LC-MISS	 1.2938	UT	UT
304.001	1.000	Invalid LC-Hit Cue: invalid cue where following object was a subsequent low confidence hit	OBJ	NV	1	0.870	LC-HIT	 1.1605	1	0.88761
308.001	0.500	Invalid LC-Hit Obj: object that was a subsequent low confidence hit and that followed an invalid cue	OBJ	NV	1	0.870	LC-HIT	 1.1605	1	0.88761
310.001	1.000	Valid Miss Cue: valid cue where following object was a subsequent miss	OBJ	V	1	0.723	HC-MISS	 1.5827	UT	UT
316.001	0.500	Valid Miss Obj: object that was a subsequent miss and that followed a valid cue	OBJ	V	1	0.723	HC-MISS	 1.5827	UT	UT
318.001	1.000	Valid Other Greeble Cue: valid cue where following stimulus was an untested or no response greeble	GRE	V	1	0.762	UT	UT	UT	UT
320.001	0.500	Valid Other Greeble: stimulus that was an untested or no response greeble and that followed a valid cue	GRE	V	1	0.762	UT	UT	UT	UT
322.001	1.000	Valid HC-Hit Cue: valid cue where following object was a subsequent high confidence hit	OBJ	V	1	0.710	HC-HIT	0.99793	1	0.57708
328.001	0.500	Valid HC-Hit Obj: object that was a subsequent high confidence hit and that followed a valid cue	OBJ	V	1	0.710	HC-HIT	0.99793	1	0.57708
330.002	1.000	Valid Other Obj Cue: valid cue where following stimulus was an untested or no response object	OBJ	V	1	0.595	UT	UT	UT	UT
336.002	0.500	Valid Other Obj: stimulus that was an untested or no response object and that followed a valid cue	OBJ	V	1	0.595	UT	UT	UT	UT
338.002	1.000	Valid LC-Hit Cue: valid cue where following object was a subsequent low confidence hit	OBJ	V	1	0.730	LC-HIT	  1.222	1	0.48237
342.002	0.500	Valid LC-Hit Obj: object that was a subsequent low confidence hit and that followed a valid cue	OBJ	V	1	0.730	LC-HIT	  1.222	1	0.48237
344.001	1.000	Valid LC-Hit Cue: valid cue where following object was a subsequent low confidence hit	OBJ	V	1	0.782	LC-HIT	 2.4265	0	0.88804
348.001	0.500	Valid LC-Hit Obj: object that was a subsequent low confidence hit and that followed a valid cue	OBJ	V	1	0.782	LC-HIT	 2.4265	0	0.88804
350.001	1.000	Valid Other Greeble Cue: valid cue where following stimulus was an untested or no response greeble	GRE	V	1	0.701	UT	UT	UT	UT
352.001	0.500	Valid Other Greeble: stimulus that was an untested or no response greeble and that followed a valid cue	GRE	V	1	0.701	UT	UT	UT	UT
354.002	1.000	Invalid LC-Hit Cue: invalid cue where following object was a subsequent low confidence hit	OBJ	NV	1	0.618	LC-HIT	 1.5063	0	0.49016
358.002	0.500	Invalid LC-Hit Obj: object that was a subsequent low confidence hit and that followed an invalid cue	OBJ	NV	1	0.618	LC-HIT	 1.5063	0	0.49016
362.001	1.000	Valid Miss Cue: valid cue where following object was a subsequent miss	OBJ	V	1	0.616	LC-MISS	  2.032	UT	UT
364.001	0.500	Valid Miss Obj: object that was a subsequent miss and that followed a valid cue	OBJ	V	1	0.616	LC-MISS	  2.032	UT	UT
