onset	duration	trial_number	event_type	executed_movement	correct_movement	shown_stimulus	reported_gs	correct_gs	included_trial	reason_for_exclusion
12.9799999999814	22.02	1	stimulus	n/a	n/a	white X	n/a	n/a	0	test trial
35	10.6892576999962	1	stimulus	n/a	n/a	OQCQQGGG	3	3	0	test trial
36.0100000000093	0	1	foot step	4	4	n/a	n/a	n/a	0	test trial
36.6499999999069	0	1	foot step	3	3	n/a	n/a	n/a	0	test trial
37.3500000000931	0	1	foot step	4	4	n/a	n/a	n/a	0	test trial
38.0300000000279	0	1	foot step	1	1	n/a	n/a	n/a	0	test trial
38.7399999999907	0	1	foot step	4	4	n/a	n/a	n/a	0	test trial
39.3400000000838	0	1	foot step	1	1	n/a	n/a	n/a	0	test trial
40.0700000000652	0	1	foot step	2	2	n/a	n/a	n/a	0	test trial
40.7700000000186	0	1	foot step	4	4	n/a	n/a	n/a	0	test trial
41.4599999999627	0	1	foot step	3	3	n/a	n/a	n/a	0	test trial
42.2099999999627	0	1	foot step	2	2	n/a	n/a	n/a	0	test trial
42.7900000000373	0	1	foot step	1	1	n/a	n/a	n/a	0	test trial
45.6999999999534	5	1	stimulus	n/a	n/a	white X	n/a	n/a	0	test trial
68.8600000001024	23.02	2	stimulus	n/a	n/a	white X	n/a	n/a	1	n/a
91.8704334001523	8.31065739993937	2	stimulus	n/a	n/a	GQQOOOCG	2	2	1	n/a
92.9204334001988	0	2	foot step	4	4	n/a	n/a	n/a	1	n/a
93.5604334000964	0	2	foot step	3	3	n/a	n/a	n/a	1	n/a
94.2604334000498	0	2	foot step	4	4	n/a	n/a	n/a	1	n/a
94.9404334002174	0	2	foot step	1	1	n/a	n/a	n/a	1	n/a
95.6204334001523	0	2	foot step	4	4	n/a	n/a	n/a	1	n/a
96.2904334000777	0	2	foot step	1	1	n/a	n/a	n/a	1	n/a
97.0204334000591	0	2	foot step	2	2	n/a	n/a	n/a	1	n/a
97.7304334002547	0	2	foot step	4	4	n/a	n/a	n/a	1	n/a
98.490433400264	0	2	foot step	3	3	n/a	n/a	n/a	1	n/a
99.1904334002174	0	2	foot step	2	2	n/a	n/a	n/a	1	n/a
99.8404334001243	0	2	foot step	1	1	n/a	n/a	n/a	1	n/a
100.179999999935	5	2	stimulus	n/a	n/a	white X	n/a	n/a	1	n/a
100.590433400124	0	2	foot step	2	2	n/a	n/a	n/a	1	n/a
115.159999999916	23	3	stimulus	n/a	n/a	white X	n/a	n/a	1	n/a
138.158470400143	8.80413389997557	3	stimulus	n/a	n/a	QGCQQGCG	3	3	1	n/a
139.118470400106	0	3	foot step	4	4	n/a	n/a	n/a	1	n/a
139.798470400041	0	3	foot step	3	3	n/a	n/a	n/a	1	n/a
140.538470400032	0	3	foot step	4	4	n/a	n/a	n/a	1	n/a
141.188470400171	0	3	foot step	1	1	n/a	n/a	n/a	1	n/a
141.908470400143	0	3	foot step	4	4	n/a	n/a	n/a	1	n/a
142.528470400255	0	3	foot step	1	1	n/a	n/a	n/a	1	n/a
143.238470400218	0	3	foot step	2	2	n/a	n/a	n/a	1	n/a
143.928470400162	0	3	foot step	4	4	n/a	n/a	n/a	1	n/a
144.618470400106	0	3	foot step	3	3	n/a	n/a	n/a	1	n/a
145.358470400097	0	3	foot step	2	2	n/a	n/a	n/a	1	n/a
145.998470400227	0	3	foot step	1	1	n/a	n/a	n/a	1	n/a
146.848470400088	0	3	foot step	2	2	n/a	n/a	n/a	1	n/a
146.959999999963	5	3	stimulus	n/a	n/a	white X	n/a	n/a	1	n/a
157.760000000009	23.02	4	stimulus	n/a	n/a	white X	n/a	n/a	0	erroneous trial
180.77452350012	9.71295409998856	4	stimulus	n/a	n/a	GOCGQCQO	1	2	0	erroneous trial
181.744523500092	0	4	foot step	4	4	n/a	n/a	n/a	0	erroneous trial
182.334523500176	0	4	foot step	1	3	n/a	n/a	n/a	0	erroneous trial
183.03452350013	0	4	foot step	4	4	n/a	n/a	n/a	0	erroneous trial
183.624523500213	0	4	foot step	1	1	n/a	n/a	n/a	0	erroneous trial
184.334523500176	0	4	foot step	4	4	n/a	n/a	n/a	0	erroneous trial
185.064523500158	0	4	foot step	1	1	n/a	n/a	n/a	0	erroneous trial
185.764523500111	0	4	foot step	2	2	n/a	n/a	n/a	0	erroneous trial
186.364523500204	0	4	foot step	1	4	n/a	n/a	n/a	0	erroneous trial
187.184523500036	0	4	foot step	4	3	n/a	n/a	n/a	0	erroneous trial
187.874523500213	0	4	foot step	1	2	n/a	n/a	n/a	0	erroneous trial
190.5	5	4	stimulus	n/a	n/a	white X	n/a	n/a	0	erroneous trial
202.120000000112	24	5	stimulus	n/a	n/a	white X	n/a	n/a	1	n/a
226.125884500099	8.66332700010389	5	stimulus	n/a	n/a	OOGGQCQQ	2	2	1	n/a
227.055884500034	0	5	foot step	4	4	n/a	n/a	n/a	1	n/a
227.635884500109	0	5	foot step	3	3	n/a	n/a	n/a	1	n/a
228.355884500081	0	5	foot step	4	4	n/a	n/a	n/a	1	n/a
228.965884500183	0	5	foot step	1	1	n/a	n/a	n/a	1	n/a
229.775884500006	0	5	foot step	4	4	n/a	n/a	n/a	1	n/a
230.435884500155	0	5	foot step	1	1	n/a	n/a	n/a	1	n/a
231.11588450009	0	5	foot step	2	2	n/a	n/a	n/a	1	n/a
231.805884500034	0	5	foot step	4	4	n/a	n/a	n/a	1	n/a
232.505884499988	0	5	foot step	3	3	n/a	n/a	n/a	1	n/a
233.275884500006	0	5	foot step	2	2	n/a	n/a	n/a	1	n/a
233.905884500127	0	5	foot step	1	1	n/a	n/a	n/a	1	n/a
234.765884499997	0	5	foot step	2	2	n/a	n/a	n/a	1	n/a
234.780000000028	5	5	stimulus	n/a	n/a	white X	n/a	n/a	1	n/a
245.100000000093	21	6	stimulus	n/a	n/a	white X	n/a	n/a	1	n/a
266.113595200004	11.1953780001495	6	stimulus	n/a	n/a	GQOQQGOC	2	2	1	n/a
267.483595200116	0	6	foot step	4	4	n/a	n/a	n/a	1	n/a
268.123595200013	0	6	foot step	3	3	n/a	n/a	n/a	1	n/a
268.833595199976	0	6	foot step	4	4	n/a	n/a	n/a	1	n/a
269.483595200116	0	6	foot step	1	1	n/a	n/a	n/a	1	n/a
270.17359520006	0	6	foot step	4	4	n/a	n/a	n/a	1	n/a
270.813595199957	0	6	foot step	1	1	n/a	n/a	n/a	1	n/a
271.553595199948	0	6	foot step	2	2	n/a	n/a	n/a	1	n/a
272.203595200088	0	6	foot step	4	4	n/a	n/a	n/a	1	n/a
272.92359520006	0	6	foot step	3	3	n/a	n/a	n/a	1	n/a
273.663595200051	0	6	foot step	2	2	n/a	n/a	n/a	1	n/a
274.373595200013	0	6	foot step	1	1	n/a	n/a	n/a	1	n/a
275.113595200004	0	6	foot step	2	2	n/a	n/a	n/a	1	n/a
277.300000000047	5	6	stimulus	n/a	n/a	white X	n/a	n/a	1	n/a
296.899999999907	24	7	stimulus	n/a	n/a	white X	n/a	n/a	1	n/a
320.910494900076	8.12447290006094	7	stimulus	n/a	n/a	OCCQCGCQ	1	1	1	n/a
322.010494900169	0	7	foot step	4	4	n/a	n/a	n/a	1	n/a
322.630494900048	0	7	foot step	3	3	n/a	n/a	n/a	1	n/a
323.300494899973	0	7	foot step	4	4	n/a	n/a	n/a	1	n/a
323.940494900104	0	7	foot step	1	1	n/a	n/a	n/a	1	n/a
325.370494900038	0	7	foot step	4	4	n/a	n/a	n/a	1	n/a
326.060494899983	0	7	foot step	1	1	n/a	n/a	n/a	1	n/a
326.74049490015	0	7	foot step	2	2	n/a	n/a	n/a	1	n/a
327.440494900104	0	7	foot step	4	4	n/a	n/a	n/a	1	n/a
328.200494900113	0	7	foot step	3	3	n/a	n/a	n/a	1	n/a
328.890494900057	0	7	foot step	2	2	n/a	n/a	n/a	1	n/a
329.040000000037	5	7	stimulus	n/a	n/a	white X	n/a	n/a	1	n/a
329.630494900048	0	7	foot step	1	1	n/a	n/a	n/a	1	n/a
330.300494899973	0	7	foot step	2	2	n/a	n/a	n/a	1	n/a
342	25.02	8	stimulus	n/a	n/a	white X	n/a	n/a	1	n/a
367.018045300152	9.01105129998177	8	stimulus	n/a	n/a	QQOCOOQO	0	0	1	n/a
368.068045300199	0	8	foot step	4	4	n/a	n/a	n/a	1	n/a
368.65804530005	0	8	foot step	3	3	n/a	n/a	n/a	1	n/a
369.368045300245	0	8	foot step	4	4	n/a	n/a	n/a	1	n/a
370.038045300171	0	8	foot step	1	1	n/a	n/a	n/a	1	n/a
370.788045300171	0	8	foot step	4	4	n/a	n/a	n/a	1	n/a
371.448045300087	0	8	foot step	1	1	n/a	n/a	n/a	1	n/a
372.108045300236	0	8	foot step	2	2	n/a	n/a	n/a	1	n/a
372.818045300199	0	8	foot step	4	4	n/a	n/a	n/a	1	n/a
373.488045300124	0	8	foot step	3	3	n/a	n/a	n/a	1	n/a
374.258045300143	0	8	foot step	2	2	n/a	n/a	n/a	1	n/a
374.958045300096	0	8	foot step	1	1	n/a	n/a	n/a	1	n/a
375.688045300078	0	8	foot step	2	2	n/a	n/a	n/a	1	n/a
376.020000000019	5	8	stimulus	n/a	n/a	white X	n/a	n/a	1	n/a
389.260000000009	23	9	stimulus	n/a	n/a	white X	n/a	n/a	1	n/a
412.267046499997	8.34765800018795	9	stimulus	n/a	n/a	QCGOGOOG	3	3	1	n/a
413.267046499997	0	9	foot step	4	4	n/a	n/a	n/a	1	n/a
413.857046500081	0	9	foot step	3	3	n/a	n/a	n/a	1	n/a
414.567046500044	0	9	foot step	4	4	n/a	n/a	n/a	1	n/a
415.297046500025	0	9	foot step	1	1	n/a	n/a	n/a	1	n/a
415.917046499904	0	9	foot step	4	4	n/a	n/a	n/a	1	n/a
416.577046500053	0	9	foot step	1	1	n/a	n/a	n/a	1	n/a
417.22704649996	0	9	foot step	2	2	n/a	n/a	n/a	1	n/a
417.947046499932	0	9	foot step	4	4	n/a	n/a	n/a	1	n/a
418.557046500035	0	9	foot step	3	3	n/a	n/a	n/a	1	n/a
419.337046500063	0	9	foot step	2	2	n/a	n/a	n/a	1	n/a
420.057046500035	0	9	foot step	1	1	n/a	n/a	n/a	1	n/a
420.620000000112	5	9	stimulus	n/a	n/a	white X	n/a	n/a	1	n/a
420.737046499969	0	9	foot step	2	2	n/a	n/a	n/a	1	n/a
439.459999999963	23.02	10	stimulus	n/a	n/a	white X	n/a	n/a	1	n/a
462.49114490021	10.4015035999473	10	stimulus	n/a	n/a	QQCOGGOQ	2	2	1	n/a
463.521144900238	0	10	foot step	4	4	n/a	n/a	n/a	1	n/a
464.221144900192	0	10	foot step	3	3	n/a	n/a	n/a	1	n/a
464.891144900117	0	10	foot step	4	4	n/a	n/a	n/a	1	n/a
465.481144900201	0	10	foot step	1	1	n/a	n/a	n/a	1	n/a
466.401144900126	0	10	foot step	4	4	n/a	n/a	n/a	1	n/a
467.061144900275	0	10	foot step	1	1	n/a	n/a	n/a	1	n/a
467.721144900192	0	10	foot step	2	2	n/a	n/a	n/a	1	n/a
468.411144900136	0	10	foot step	4	4	n/a	n/a	n/a	1	n/a
469.121144900098	0	10	foot step	3	3	n/a	n/a	n/a	1	n/a
469.861144900322	0	10	foot step	2	2	n/a	n/a	n/a	1	n/a
470.461144900182	0	10	foot step	1	1	n/a	n/a	n/a	1	n/a
471.261144900229	0	10	foot step	2	2	n/a	n/a	n/a	1	n/a
472.899999999907	5	10	stimulus	n/a	n/a	white X	n/a	n/a	1	n/a
481.100000000093	22.02	11	stimulus	n/a	n/a	white X	n/a	n/a	1	n/a
503.126158200204	9.76904129981995	11	stimulus	n/a	n/a	CQCCOQOC	0	0	1	n/a
504.136158200214	0	11	foot step	4	4	n/a	n/a	n/a	1	n/a
504.776158200111	0	11	foot step	3	3	n/a	n/a	n/a	1	n/a
505.476158200298	0	11	foot step	4	4	n/a	n/a	n/a	1	n/a
506.136158200214	0	11	foot step	1	1	n/a	n/a	n/a	1	n/a
506.786158200121	0	11	foot step	4	4	n/a	n/a	n/a	1	n/a
507.476158200298	0	11	foot step	1	1	n/a	n/a	n/a	1	n/a
508.136158200214	0	11	foot step	2	2	n/a	n/a	n/a	1	n/a
508.816158200148	0	11	foot step	4	4	n/a	n/a	n/a	1	n/a
509.516158200102	0	11	foot step	3	3	n/a	n/a	n/a	1	n/a
510.406158200232	0	11	foot step	2	2	n/a	n/a	n/a	1	n/a
511.076158200158	0	11	foot step	1	1	n/a	n/a	n/a	1	n/a
512.899999999907	5	11	stimulus	n/a	n/a	white X	n/a	n/a	1	n/a
512.926158200251	0	11	foot step	2	2	n/a	n/a	n/a	1	n/a
