onset	duration	trial_type	feedback	TrialNum	StimCond	StimulusNum	Response	RT	Correct	Feedback
0.19	2.0	feedback	-1.52	1	1	10	R	1.284	0	L
4.691	2.0	feedback	0.48	2	1	13	L	0.975	1	L
9.092500000000001	2.0	feedback	0.48	3	1	2	R	0.995	1	R
13.586500000000001	2.0	feedback	0.48	4	1	4	L	0.868	1	L
18.087000000000003	2.0	feedback	0.48	5	1	1	R	1.031	1	R
22.671999999999997	n/a	n/a	n/a	6	1	0	R	0.818	-	-
27.171999999999997	n/a	n/a	n/a	7	1	0	R	0.561	-	-
31.671999999999997	n/a	n/a	n/a	8	1	0	R	0.498	-	-
36.1895	2.0	feedback	0.48	9	1	11	R	0.863	1	R
40.608000000000004	2.0	feedback	0.48	10	1	10	L	1.138	1	L
45.108000000000004	2.0	feedback	0.48	11	1	10	L	0.887	1	L
49.6065	2.0	feedback	-1.52	12	1	6	R	0.893	0	L
54.12050000000001	2.0	feedback	0.48	13	1	5	R	1.0590000000000002	1	R
58.678000000000004	n/a	n/a	n/a	14	1	0	R	0.629	-	-
63.17100000000001	n/a	n/a	n/a	15	1	0	R	0.5760000000000001	-	-
67.671	n/a	n/a	n/a	16	1	0	R	0.596	-	-
72.0875	2.0	feedback	0.48	17	1	1	R	1.13	1	R
76.608	2.0	feedback	0.48	18	1	10	L	1.067	1	L
81.1165	2.0	feedback	0.48	19	1	5	R	0.9590000000000001	1	R
85.6105	2.0	feedback	0.48	20	1	7	L	0.711	1	L
90.11699999999999	2.0	feedback	0.48	21	1	5	R	0.7509999999999999	1	R
94.671	n/a	n/a	n/a	22	1	0	R	1.757	-	-
99.17	n/a	n/a	n/a	23	1	0	R	0.635	-	-
103.671	n/a	n/a	n/a	24	1	0	R	0.318	-	-
108.189	2.0	feedback	-1.52	25	1	11	R	1.587	1	L
112.5875	2.0	feedback	0.48	26	1	1	R	1.95	1	R
117.0925	2.0	feedback	-1.52	27	1	2	L	0.8320000000000001	0	R
121.615	2.0	feedback	0.48	28	1	8	L	1.535	0	L
126.11449999999999	2.0	feedback	-1.52	29	1	8	L	0.925	0	R
130.671	n/a	n/a	n/a	30	1	0	R	0.983	-	-
135.171	n/a	n/a	n/a	31	1	0	R	1.268	-	-
139.664	n/a	n/a	n/a	32	1	0	R	0.6859999999999999	-	-
144.108	2.0	feedback	0.48	33	1	10	L	1.579	1	L
148.60750000000002	2.0	feedback	0.48	34	1	10	L	1.056	1	L
153.11	2.0	feedback	-1.52	35	1	6	R	0.991	0	L
157.60750000000002	2.0	feedback	0.48	36	1	10	L	0.9359999999999999	1	L
162.0925	2.0	feedback	0.48	37	1	2	R	1.859	1	R
166.672	n/a	n/a	n/a	38	1	0	R	1.76	-	-
171.171	n/a	n/a	n/a	39	1	0	R	0.885	-	-
175.671	n/a	n/a	n/a	40	1	0	R	0.625	-	-
180.189	2.0	feedback	0.48	41	1	11	R	2.1109999999999998	1	R
184.60750000000002	2.0	feedback	0.48	42	1	10	L	1.002	1	L
189.189	2.0	feedback	0.48	43	1	11	R	2.1590000000000003	1	R
193.5815	2.0	feedback	-1.52	44	1	3	R	1.8780000000000001	0	L
198.2035	2.0	feedback	0.48	45	1	11	R	1.13	1	R
202.67700000000002	n/a	n/a	n/a	46	1	0	R	1.1079999999999999	-	-
207.172	n/a	n/a	n/a	47	1	0	R	0.5820000000000001	-	-
211.671	n/a	n/a	n/a	48	1	0	R	1.579	-	-
216.189	2.0	feedback	-1.52	49	1	14	R	1.296	1	L
220.61599999999999	2.0	feedback	-1.52	50	1	5	L	1.37	0	R
225.1885	2.0	feedback	0.48	51	1	11	R	1.5530000000000002	1	R
229.689	2.0	feedback	0.48	52	1	11	R	1.524	1	R
234.093	2.0	feedback	0.48	53	1	2	R	1.045	1	R
238.671	n/a	n/a	n/a	54	1	0	R	0.963	-	-
243.171	n/a	n/a	n/a	55	1	0	R	0.585	-	-
247.671	n/a	n/a	n/a	56	1	0	R	0.5479999999999999	-	-
252.0925	2.0	feedback	0.48	57	1	2	R	0.8059999999999999	1	R
256.607	2.0	feedback	0.48	58	1	10	L	0.982	1	L
261.087	2.0	feedback	-1.52	59	1	1	L	2.162	0	R
265.587	2.0	feedback	-1.52	60	1	4	L	1.5019999999999998	1	R
270.11	2.0	feedback	0.48	61	1	6	L	0.765	1	L
274.671	n/a	n/a	n/a	62	1	0	R	1.501	-	-
279.171	n/a	n/a	n/a	63	1	0	R	1.449	-	-
283.672	n/a	n/a	n/a	64	1	0	R	1.1	-	-
288.1075	2.0	feedback	0.48	65	1	10	L	1.162	1	L
292.586	2.0	feedback	0.48	66	1	4	L	1.033	1	L
297.18899999999996	2.0	feedback	0.48	67	1	14	R	1.107	1	R
301.5855	2.0	feedback	-1.52	68	1	3	R	1.083	0	L
306.18899999999996	2.0	feedback	0.48	69	1	14	R	0.828	1	R
310.672	n/a	n/a	n/a	70	1	0	R	0.773	-	-
315.17	n/a	n/a	n/a	71	1	0	R	1.148	-	-
319.672	n/a	n/a	n/a	72	1	0	R	1.335	-	-
324.1145	2.0	feedback	0.48	73	1	8	R	1.6059999999999999	1	R
328.586	2.0	feedback	0.48	74	1	4	L	0.8909999999999999	1	L
333.108	2.0	feedback	0.48	75	1	10	L	1.3630000000000002	1	L
337.6095	2.0	feedback	0.48	76	1	6	L	1.636	1	L
342.182	2.0	feedback	0.48	77	1	12	L	0.9229999999999999	-1	L
346.67199999999997	n/a	n/a	n/a	78	1	0	R	1.016	-	-
351.171	n/a	n/a	n/a	79	1	0	R	0.8759999999999999	-	-
355.671	n/a	n/a	n/a	80	1	0	R	1.344	-	-
