onset	duration	trial_number	event_type	executed_movement	correct_movement	shown_stimulus	reported_gs	correct_gs	included_trial	reason_for_exclusion
13	22	1	stimulus	n/a	n/a	white X	n/a	n/a	0	test trial
35	10.668663199991	1	stimulus	n/a	n/a	OQCQQGGG	3	3	0	test trial
35.8100000000559	0	1	foot step	2	2	n/a	n/a	n/a	0	test trial
36.390000000014	0	1	foot step	1	1	n/a	n/a	n/a	0	test trial
37.0799999999581	0	1	foot step	2	2	n/a	n/a	n/a	0	test trial
37.640000000014	0	1	foot step	3	3	n/a	n/a	n/a	0	test trial
38.3000000000466	0	1	foot step	2	2	n/a	n/a	n/a	0	test trial
38.8800000000047	0	1	foot step	1	1	n/a	n/a	n/a	0	test trial
39.4000000000233	0	1	foot step	3	3	n/a	n/a	n/a	0	test trial
40.140000000014	0	1	foot step	2	2	n/a	n/a	n/a	0	test trial
40.7299999999814	0	1	foot step	4	4	n/a	n/a	n/a	0	test trial
41.3699999999953	0	1	foot step	2	2	n/a	n/a	n/a	0	test trial
41.9899999999907	0	1	foot step	4	4	n/a	n/a	n/a	0	test trial
42.6999999999534	0	1	foot step	1	1	n/a	n/a	n/a	0	test trial
45.6800000000512	5	1	stimulus	n/a	n/a	white X	n/a	n/a	0	test trial
58.5200000000186	23	2	stimulus	n/a	n/a	white X	n/a	n/a	1	n/a
81.5194827999221	8.305422800011	2	stimulus	n/a	n/a	GQQOOOCG	2	2	1	n/a
82.4794827998849	0	2	foot step	2	2	n/a	n/a	n/a	1	n/a
83.0394827999407	0	2	foot step	1	1	n/a	n/a	n/a	1	n/a
83.6794827999547	0	2	foot step	2	2	n/a	n/a	n/a	1	n/a
84.2994827999501	0	2	foot step	3	3	n/a	n/a	n/a	1	n/a
84.8894827999175	0	2	foot step	2	2	n/a	n/a	n/a	1	n/a
85.4594827998662	0	2	foot step	1	1	n/a	n/a	n/a	1	n/a
86.0594827999594	0	2	foot step	3	3	n/a	n/a	n/a	1	n/a
86.6994827999733	0	2	foot step	2	2	n/a	n/a	n/a	1	n/a
87.2894827999407	0	2	foot step	4	4	n/a	n/a	n/a	1	n/a
87.939482799964	0	2	foot step	2	2	n/a	n/a	n/a	1	n/a
88.579482799978	0	2	foot step	4	4	n/a	n/a	n/a	1	n/a
89.2394827998942	0	2	foot step	1	1	n/a	n/a	n/a	1	n/a
89.8399999999674	5	2	stimulus	n/a	n/a	white X	n/a	n/a	1	n/a
99.6800000000512	23.02	3	stimulus	n/a	n/a	white X	n/a	n/a	1	n/a
122.686292300001	8.78696279996075	3	stimulus	n/a	n/a	QGCQQGCG	3	3	1	n/a
123.656292299973	0	3	foot step	2	2	n/a	n/a	n/a	1	n/a
124.216292300029	0	3	foot step	1	1	n/a	n/a	n/a	1	n/a
124.866292300052	0	3	foot step	2	2	n/a	n/a	n/a	1	n/a
125.466292300029	0	3	foot step	3	3	n/a	n/a	n/a	1	n/a
126.096292300033	0	3	foot step	2	2	n/a	n/a	n/a	1	n/a
126.69629230001	0	3	foot step	1	1	n/a	n/a	n/a	1	n/a
127.356292300043	0	3	foot step	3	3	n/a	n/a	n/a	1	n/a
128.00629229995	0	3	foot step	2	2	n/a	n/a	n/a	1	n/a
128.666292299982	0	3	foot step	4	4	n/a	n/a	n/a	1	n/a
129.286292299978	0	3	foot step	2	2	n/a	n/a	n/a	1	n/a
129.956292300019	0	3	foot step	4	4	n/a	n/a	n/a	1	n/a
130.636292299954	0	3	foot step	1	1	n/a	n/a	n/a	1	n/a
131.479999999981	5	3	stimulus	n/a	n/a	white X	n/a	n/a	1	n/a
141.140000000014	23.02	4	stimulus	n/a	n/a	white X	n/a	n/a	1	n/a
164.141683400027	9.68696529988665	4	stimulus	n/a	n/a	GOCGQCQO	2	2	1	n/a
165.03168340004	0	4	foot step	2	2	n/a	n/a	n/a	1	n/a
165.661683400045	0	4	foot step	1	1	n/a	n/a	n/a	1	n/a
166.271683400031	0	4	foot step	2	2	n/a	n/a	n/a	1	n/a
166.891683400027	0	4	foot step	3	3	n/a	n/a	n/a	1	n/a
167.53168340004	0	4	foot step	2	2	n/a	n/a	n/a	1	n/a
168.141683400027	0	4	foot step	1	1	n/a	n/a	n/a	1	n/a
168.661683400045	0	4	foot step	3	3	n/a	n/a	n/a	1	n/a
169.361683399999	0	4	foot step	2	2	n/a	n/a	n/a	1	n/a
169.991683400003	0	4	foot step	4	4	n/a	n/a	n/a	1	n/a
170.611683399999	0	4	foot step	2	2	n/a	n/a	n/a	1	n/a
171.211683399975	0	4	foot step	4	4	n/a	n/a	n/a	1	n/a
171.831683399971	0	4	foot step	1	1	n/a	n/a	n/a	1	n/a
173.839999999967	5	4	stimulus	n/a	n/a	white X	n/a	n/a	1	n/a
181.5	24	5	stimulus	n/a	n/a	white X	n/a	n/a	1	n/a
205.49391379999	8.67260970000643	5	stimulus	n/a	n/a	OOGGQCQQ	2	2	1	n/a
206.413913800032	0	5	foot step	2	2	n/a	n/a	n/a	1	n/a
206.99391379999	0	5	foot step	1	1	n/a	n/a	n/a	1	n/a
207.643913800013	0	5	foot step	2	2	n/a	n/a	n/a	1	n/a
208.233913799981	0	5	foot step	3	3	n/a	n/a	n/a	1	n/a
208.873913799995	0	5	foot step	2	2	n/a	n/a	n/a	1	n/a
209.503913799999	0	5	foot step	1	1	n/a	n/a	n/a	1	n/a
210.133913800004	0	5	foot step	3	3	n/a	n/a	n/a	1	n/a
210.753913799999	0	5	foot step	2	2	n/a	n/a	n/a	1	n/a
211.403913800023	0	5	foot step	4	4	n/a	n/a	n/a	1	n/a
212.013913800009	0	5	foot step	2	2	n/a	n/a	n/a	1	n/a
212.653913800023	0	5	foot step	4	4	n/a	n/a	n/a	1	n/a
213.253913799999	0	5	foot step	1	1	n/a	n/a	n/a	1	n/a
214.180000000051	5	5	stimulus	n/a	n/a	white X	n/a	n/a	1	n/a
222.400000000023	21.02	6	stimulus	n/a	n/a	white X	n/a	n/a	1	n/a
243.414879799937	11.1959182000719	6	stimulus	n/a	n/a	GQOQQGOC	2	2	1	n/a
244.36487979989	0	6	foot step	2	2	n/a	n/a	n/a	1	n/a
244.974879799993	0	6	foot step	1	1	n/a	n/a	n/a	1	n/a
245.604879799881	0	6	foot step	2	2	n/a	n/a	n/a	1	n/a
246.234879799886	0	6	foot step	3	3	n/a	n/a	n/a	1	n/a
246.8748797999	0	6	foot step	2	2	n/a	n/a	n/a	1	n/a
247.474879799993	0	6	foot step	1	1	n/a	n/a	n/a	1	n/a
248.06487979996	0	6	foot step	3	3	n/a	n/a	n/a	1	n/a
248.754879799904	0	6	foot step	2	2	n/a	n/a	n/a	1	n/a
249.384879799909	0	6	foot step	4	4	n/a	n/a	n/a	1	n/a
250.074879799969	0	6	foot step	2	2	n/a	n/a	n/a	1	n/a
250.694879799965	0	6	foot step	4	4	n/a	n/a	n/a	1	n/a
251.284879799932	0	6	foot step	1	1	n/a	n/a	n/a	1	n/a
254.619999999995	5	6	stimulus	n/a	n/a	white X	n/a	n/a	1	n/a
276.040000000037	24	7	stimulus	n/a	n/a	white X	n/a	n/a	1	n/a
300.043568299967	8.12888350000139	7	stimulus	n/a	n/a	OCCQCGCQ	1	1	1	n/a
301.073568299995	0	7	foot step	2	2	n/a	n/a	n/a	1	n/a
301.673568299972	0	7	foot step	1	1	n/a	n/a	n/a	1	n/a
302.343568300013	0	7	foot step	2	2	n/a	n/a	n/a	1	n/a
303.023568299948	0	7	foot step	3	3	n/a	n/a	n/a	1	n/a
303.663568299962	0	7	foot step	2	2	n/a	n/a	n/a	1	n/a
304.263568299939	0	7	foot step	1	1	n/a	n/a	n/a	1	n/a
304.933568299981	0	7	foot step	3	3	n/a	n/a	n/a	1	n/a
305.563568299985	0	7	foot step	2	2	n/a	n/a	n/a	1	n/a
306.223568300018	0	7	foot step	4	4	n/a	n/a	n/a	1	n/a
306.893568299944	0	7	foot step	2	2	n/a	n/a	n/a	1	n/a
307.553568299976	0	7	foot step	4	4	n/a	n/a	n/a	1	n/a
308.133568299934	0	7	foot step	1	1	n/a	n/a	n/a	1	n/a
308.180000000051	5	7	stimulus	n/a	n/a	white X	n/a	n/a	1	n/a
316.459999999963	25	8	stimulus	n/a	n/a	white X	n/a	n/a	1	n/a
341.465883799945	8.9846389000304	8	stimulus	n/a	n/a	QQOCOOQO	0	0	1	n/a
342.435883799917	0	8	foot step	2	2	n/a	n/a	n/a	1	n/a
343.055883799912	0	8	foot step	1	1	n/a	n/a	n/a	1	n/a
343.695883799926	0	8	foot step	2	2	n/a	n/a	n/a	1	n/a
344.315883799922	0	8	foot step	3	3	n/a	n/a	n/a	1	n/a
344.955883799936	0	8	foot step	2	2	n/a	n/a	n/a	1	n/a
345.555883799912	0	8	foot step	1	1	n/a	n/a	n/a	1	n/a
346.185883799917	0	8	foot step	3	3	n/a	n/a	n/a	1	n/a
346.84588379995	0	8	foot step	2	2	n/a	n/a	n/a	1	n/a
347.435883799917	0	8	foot step	4	4	n/a	n/a	n/a	1	n/a
348.135883799987	0	8	foot step	2	2	n/a	n/a	n/a	1	n/a
348.765883799992	0	8	foot step	4	4	n/a	n/a	n/a	1	n/a
349.415883799898	0	8	foot step	1	1	n/a	n/a	n/a	1	n/a
350.459999999963	5	8	stimulus	n/a	n/a	white X	n/a	n/a	1	n/a
366.859999999986	23	9	stimulus	n/a	n/a	white X	n/a	n/a	1	n/a
389.866615499952	8.3439720000606	9	stimulus	n/a	n/a	QCGOGOOG	3	3	1	n/a
390.806615499896	0	9	foot step	2	2	n/a	n/a	n/a	1	n/a
391.386615499971	0	9	foot step	1	1	n/a	n/a	n/a	1	n/a
392.066615499905	0	9	foot step	2	2	n/a	n/a	n/a	1	n/a
392.676615500008	0	9	foot step	3	3	n/a	n/a	n/a	1	n/a
393.346615499933	0	9	foot step	2	2	n/a	n/a	n/a	1	n/a
393.976615499938	0	9	foot step	1	1	n/a	n/a	n/a	1	n/a
394.616615499952	0	9	foot step	3	3	n/a	n/a	n/a	1	n/a
395.286615499994	0	9	foot step	2	2	n/a	n/a	n/a	1	n/a
395.89661549998	0	9	foot step	4	4	n/a	n/a	n/a	1	n/a
396.536615499994	0	9	foot step	2	2	n/a	n/a	n/a	1	n/a
397.176615500008	0	9	foot step	4	4	n/a	n/a	n/a	1	n/a
397.856615499943	0	9	foot step	1	1	n/a	n/a	n/a	1	n/a
398.219999999972	5	9	stimulus	n/a	n/a	white X	n/a	n/a	1	n/a
406.479999999981	23	10	stimulus	n/a	n/a	white X	n/a	n/a	1	n/a
429.481031999923	10.3990771000972	10	stimulus	n/a	n/a	QQCOGGOQ	2	2	1	n/a
430.501031999942	0	10	foot step	2	2	n/a	n/a	n/a	1	n/a
431.171031999867	0	10	foot step	1	1	n/a	n/a	n/a	1	n/a
431.811031999881	0	10	foot step	2	2	n/a	n/a	n/a	1	n/a
432.501031999942	0	10	foot step	3	3	n/a	n/a	n/a	1	n/a
433.171031999867	0	10	foot step	2	2	n/a	n/a	n/a	1	n/a
433.8310319999	0	10	foot step	1	1	n/a	n/a	n/a	1	n/a
434.421031999867	0	10	foot step	3	3	n/a	n/a	n/a	1	n/a
435.151031999965	0	10	foot step	2	2	n/a	n/a	n/a	1	n/a
435.771031999961	0	10	foot step	4	4	n/a	n/a	n/a	1	n/a
436.421031999867	0	10	foot step	2	2	n/a	n/a	n/a	1	n/a
437.161031999975	0	10	foot step	4	4	n/a	n/a	n/a	1	n/a
437.741031999933	0	10	foot step	1	1	n/a	n/a	n/a	1	n/a
439.880000000005	5	10	stimulus	n/a	n/a	white X	n/a	n/a	1	n/a
455.520000000019	22.02	11	stimulus	n/a	n/a	white X	n/a	n/a	1	n/a
477.531469999929	9.75739360006992	11	stimulus	n/a	n/a	CQCCOQOC	0	0	1	n/a
478.501469999901	0	11	foot step	2	2	n/a	n/a	n/a	1	n/a
479.081469999976	0	11	foot step	1	1	n/a	n/a	n/a	1	n/a
479.681469999952	0	11	foot step	2	2	n/a	n/a	n/a	1	n/a
480.441469999962	0	11	foot step	3	3	n/a	n/a	n/a	1	n/a
480.981469999882	0	11	foot step	2	2	n/a	n/a	n/a	1	n/a
481.571469999966	0	11	foot step	1	1	n/a	n/a	n/a	1	n/a
482.161469999934	0	11	foot step	3	3	n/a	n/a	n/a	1	n/a
482.831469999976	0	11	foot step	2	2	n/a	n/a	n/a	1	n/a
483.441469999962	0	11	foot step	4	4	n/a	n/a	n/a	1	n/a
484.071469999966	0	11	foot step	2	2	n/a	n/a	n/a	1	n/a
484.71146999998	0	11	foot step	4	4	n/a	n/a	n/a	1	n/a
485.361469999887	0	11	foot step	1	1	n/a	n/a	n/a	1	n/a
487.300000000047	5	11	stimulus	n/a	n/a	white X	n/a	n/a	1	n/a
