onset	duration	trial_number	event_type	executed_movement	correct_movement	shown_stimulus	reported_gs	correct_gs	included_trial	reason_for_exclusion
9.97999999998137	25.02	1	stimulus	n/a	n/a	white X	n/a	n/a	0	test trial
35	8.814474600018	1	stimulus	n/a	n/a	CCGOOGQO	2	2	0	test trial
36.0699999999488	0	1	foot step	4	4	n/a	n/a	n/a	0	test trial
36.6800000000512	0	1	foot step	3	3	n/a	n/a	n/a	0	test trial
37.3199999999488	0	1	foot step	4	4	n/a	n/a	n/a	0	test trial
37.9300000000512	0	1	foot step	1	1	n/a	n/a	n/a	0	test trial
38.5100000000093	0	1	foot step	4	4	n/a	n/a	n/a	0	test trial
39.1700000000419	0	1	foot step	1	1	n/a	n/a	n/a	0	test trial
39.9300000000512	0	1	foot step	2	2	n/a	n/a	n/a	0	test trial
41.2900000000373	0	1	foot step	4	4	n/a	n/a	n/a	0	test trial
41.9699999999721	0	1	foot step	3	3	n/a	n/a	n/a	0	test trial
43.8199999999488	5	1	stimulus	n/a	n/a	white X	n/a	n/a	0	test trial
58.0200000000186	24.02	2	stimulus	n/a	n/a	white X	n/a	n/a	0	erroneous trial
82.0347513000015	9.51372059993446	2	stimulus	n/a	n/a	CGGOGQOQ	1	3	0	erroneous trial
82.9047512999969	0	2	foot step	4	4	n/a	n/a	n/a	0	erroneous trial
83.5347513000015	0	2	foot step	3	3	n/a	n/a	n/a	0	erroneous trial
84.1247512999689	0	2	foot step	4	4	n/a	n/a	n/a	0	erroneous trial
84.734751299955	0	2	foot step	1	1	n/a	n/a	n/a	0	erroneous trial
85.3547512999503	0	2	foot step	4	4	n/a	n/a	n/a	0	erroneous trial
85.9647513000527	0	2	foot step	1	1	n/a	n/a	n/a	0	erroneous trial
86.5047512999736	0	2	foot step	3	2	n/a	n/a	n/a	0	erroneous trial
87.1547512999969	0	2	foot step	2	4	n/a	n/a	n/a	0	erroneous trial
87.8047513000201	0	2	foot step	4	3	n/a	n/a	n/a	0	erroneous trial
89.7947513000108	0	2	foot step	1	2	n/a	n/a	n/a	0	erroneous trial
91.5400000000373	5	2	stimulus	n/a	n/a	white X	n/a	n/a	0	erroneous trial
147.699999999953	22	3	stimulus	n/a	n/a	white X	n/a	n/a	1	n/a
169.713222199935	9.81108210003003	3	stimulus	n/a	n/a	COQGQOCO	1	1	1	n/a
170.753222199972	0	3	foot step	4	4	n/a	n/a	n/a	1	n/a
171.373222199967	0	3	foot step	3	3	n/a	n/a	n/a	1	n/a
172.013222199981	0	3	foot step	4	4	n/a	n/a	n/a	1	n/a
172.633222199976	0	3	foot step	1	1	n/a	n/a	n/a	1	n/a
173.263222199981	0	3	foot step	4	4	n/a	n/a	n/a	1	n/a
173.893222199986	0	3	foot step	1	1	n/a	n/a	n/a	1	n/a
174.513222199981	0	3	foot step	2	2	n/a	n/a	n/a	1	n/a
175.203222199925	0	3	foot step	4	4	n/a	n/a	n/a	1	n/a
175.843222199939	0	3	foot step	3	3	n/a	n/a	n/a	1	n/a
176.503222199972	0	3	foot step	2	2	n/a	n/a	n/a	1	n/a
177.123222199967	0	3	foot step	1	1	n/a	n/a	n/a	1	n/a
177.813222199911	0	3	foot step	2	2	n/a	n/a	n/a	1	n/a
179.520000000019	5	3	stimulus	n/a	n/a	white X	n/a	n/a	1	n/a
194.680000000051	21	4	stimulus	n/a	n/a	white X	n/a	n/a	1	n/a
215.684882799978	9.17144389997702	4	stimulus	n/a	n/a	GCCOGCGO	3	3	1	n/a
216.804882799974	0	4	foot step	4	4	n/a	n/a	n/a	1	n/a
217.474882800016	0	4	foot step	3	3	n/a	n/a	n/a	1	n/a
218.084882800002	0	4	foot step	4	4	n/a	n/a	n/a	1	n/a
218.764882799936	0	4	foot step	1	1	n/a	n/a	n/a	1	n/a
219.394882799941	0	4	foot step	4	4	n/a	n/a	n/a	1	n/a
220.024882799946	0	4	foot step	1	1	n/a	n/a	n/a	1	n/a
220.694882799988	0	4	foot step	2	2	n/a	n/a	n/a	1	n/a
221.35488280002	0	4	foot step	4	4	n/a	n/a	n/a	1	n/a
222.044882799964	0	4	foot step	3	3	n/a	n/a	n/a	1	n/a
222.704882799997	0	4	foot step	2	2	n/a	n/a	n/a	1	n/a
223.35488280002	0	4	foot step	1	1	n/a	n/a	n/a	1	n/a
224.034882799955	0	4	foot step	2	2	n/a	n/a	n/a	1	n/a
224.859999999986	5	4	stimulus	n/a	n/a	white X	n/a	n/a	1	n/a
234.439999999944	25	5	stimulus	n/a	n/a	white X	n/a	n/a	1	n/a
259.452413699939	9.11702760006301	5	stimulus	n/a	n/a	OOOGOOOO	1	1	1	n/a
260.532413699897	0	5	foot step	4	4	n/a	n/a	n/a	1	n/a
261.162413699902	0	5	foot step	3	3	n/a	n/a	n/a	1	n/a
261.812413699925	0	5	foot step	4	4	n/a	n/a	n/a	1	n/a
262.422413699911	0	5	foot step	1	1	n/a	n/a	n/a	1	n/a
263.042413699906	0	5	foot step	4	4	n/a	n/a	n/a	1	n/a
263.672413699911	0	5	foot step	1	1	n/a	n/a	n/a	1	n/a
264.322413699934	0	5	foot step	2	2	n/a	n/a	n/a	1	n/a
264.992413699976	0	5	foot step	4	4	n/a	n/a	n/a	1	n/a
265.592413699953	0	5	foot step	3	3	n/a	n/a	n/a	1	n/a
266.262413699995	0	5	foot step	2	2	n/a	n/a	n/a	1	n/a
266.862413699972	0	5	foot step	1	1	n/a	n/a	n/a	1	n/a
267.492413699976	0	5	foot step	2	2	n/a	n/a	n/a	1	n/a
268.560000000056	5	5	stimulus	n/a	n/a	white X	n/a	n/a	1	n/a
283.180000000051	23.02	6	stimulus	n/a	n/a	white X	n/a	n/a	1	n/a
306.205125799985	9.83687050000299	6	stimulus	n/a	n/a	QGOGQQGO	3	3	1	n/a
307.205125799985	0	6	foot step	4	4	n/a	n/a	n/a	1	n/a
307.835125799989	0	6	foot step	3	3	n/a	n/a	n/a	1	n/a
308.425125799957	0	6	foot step	4	4	n/a	n/a	n/a	1	n/a
309.025125799933	0	6	foot step	1	1	n/a	n/a	n/a	1	n/a
309.665125799947	0	6	foot step	4	4	n/a	n/a	n/a	1	n/a
310.305125799961	0	6	foot step	1	1	n/a	n/a	n/a	1	n/a
311.235125800013	0	6	foot step	2	2	n/a	n/a	n/a	1	n/a
311.885125800036	0	6	foot step	4	4	n/a	n/a	n/a	1	n/a
312.465125799994	0	6	foot step	3	3	n/a	n/a	n/a	1	n/a
313.085125799989	0	6	foot step	2	2	n/a	n/a	n/a	1	n/a
313.765125800041	0	6	foot step	1	1	n/a	n/a	n/a	1	n/a
314.445125799975	0	6	foot step	2	2	n/a	n/a	n/a	1	n/a
316.040000000037	5	6	stimulus	n/a	n/a	white X	n/a	n/a	1	n/a
328.140000000014	21.04	7	stimulus	n/a	n/a	white X	n/a	n/a	1	n/a
349.184024699964	9.2095497000264	7	stimulus	n/a	n/a	OOOOOOQC	0	0	1	n/a
350.274024699931	0	7	foot step	4	4	n/a	n/a	n/a	1	n/a
350.874024699908	0	7	foot step	3	3	n/a	n/a	n/a	1	n/a
351.474024700001	0	7	foot step	4	4	n/a	n/a	n/a	1	n/a
352.054024699959	0	7	foot step	1	1	n/a	n/a	n/a	1	n/a
352.694024699973	0	7	foot step	4	4	n/a	n/a	n/a	1	n/a
353.314024699968	0	7	foot step	1	1	n/a	n/a	n/a	1	n/a
353.904024699936	0	7	foot step	2	2	n/a	n/a	n/a	1	n/a
354.574024699978	0	7	foot step	4	4	n/a	n/a	n/a	1	n/a
355.194024699973	0	7	foot step	3	3	n/a	n/a	n/a	1	n/a
355.804024699959	0	7	foot step	2	2	n/a	n/a	n/a	1	n/a
356.434024699964	0	7	foot step	1	1	n/a	n/a	n/a	1	n/a
357.004024699912	0	7	foot step	2	2	n/a	n/a	n/a	1	n/a
358.380000000005	5	7	stimulus	n/a	n/a	white X	n/a	n/a	1	n/a
375.660000000033	25.02	8	stimulus	n/a	n/a	white X	n/a	n/a	1	n/a
400.691374399932	9.56069499999285	8	stimulus	n/a	n/a	QQCCOCOO	0	0	1	n/a
401.611374399974	0	8	foot step	4	4	n/a	n/a	n/a	1	n/a
402.251374399988	0	8	foot step	3	3	n/a	n/a	n/a	1	n/a
402.851374399965	0	8	foot step	4	4	n/a	n/a	n/a	1	n/a
403.481374399969	0	8	foot step	1	1	n/a	n/a	n/a	1	n/a
404.071374399937	0	8	foot step	4	4	n/a	n/a	n/a	1	n/a
404.741374399979	0	8	foot step	1	1	n/a	n/a	n/a	1	n/a
405.361374399974	0	8	foot step	2	2	n/a	n/a	n/a	1	n/a
406.011374399881	0	8	foot step	4	4	n/a	n/a	n/a	1	n/a
406.601374399965	0	8	foot step	3	3	n/a	n/a	n/a	1	n/a
407.27137439989	0	8	foot step	2	2	n/a	n/a	n/a	1	n/a
407.921374399913	0	8	foot step	1	1	n/a	n/a	n/a	1	n/a
408.561374399927	0	8	foot step	2	2	n/a	n/a	n/a	1	n/a
410.239999999991	5	8	stimulus	n/a	n/a	white X	n/a	n/a	1	n/a
427.160000000033	22.02	9	stimulus	n/a	n/a	white X	n/a	n/a	1	n/a
449.194633099949	8.73495030007325	9	stimulus	n/a	n/a	GCQCGOGO	3	3	1	n/a
450.214633099968	0	9	foot step	4	4	n/a	n/a	n/a	1	n/a
450.784633099916	0	9	foot step	3	3	n/a	n/a	n/a	1	n/a
451.43463309994	0	9	foot step	4	4	n/a	n/a	n/a	1	n/a
452.074633099954	0	9	foot step	1	1	n/a	n/a	n/a	1	n/a
452.714633099968	0	9	foot step	4	4	n/a	n/a	n/a	1	n/a
453.3746331	0	9	foot step	1	1	n/a	n/a	n/a	1	n/a
453.994633099996	0	9	foot step	2	2	n/a	n/a	n/a	1	n/a
454.694633099949	0	9	foot step	4	4	n/a	n/a	n/a	1	n/a
455.274633099907	0	9	foot step	3	3	n/a	n/a	n/a	1	n/a
455.974633099977	0	9	foot step	2	2	n/a	n/a	n/a	1	n/a
456.6246331	0	9	foot step	1	1	n/a	n/a	n/a	1	n/a
457.264633099898	0	9	foot step	2	2	n/a	n/a	n/a	1	n/a
457.920000000042	5	9	stimulus	n/a	n/a	white X	n/a	n/a	1	n/a
467.420000000042	22	10	stimulus	n/a	n/a	white X	n/a	n/a	1	n/a
489.435145299998	10.659342900035	10	stimulus	n/a	n/a	QGQGQGQQ	3	3	1	n/a
490.475145300035	0	10	foot step	4	4	n/a	n/a	n/a	1	n/a
491.075145300012	0	10	foot step	3	3	n/a	n/a	n/a	1	n/a
491.685145299998	0	10	foot step	4	4	n/a	n/a	n/a	1	n/a
492.335145300021	0	10	foot step	1	1	n/a	n/a	n/a	1	n/a
492.965145300026	0	10	foot step	4	4	n/a	n/a	n/a	1	n/a
493.625145299942	0	10	foot step	1	1	n/a	n/a	n/a	1	n/a
494.235145300045	0	10	foot step	2	2	n/a	n/a	n/a	1	n/a
494.895145299961	0	10	foot step	4	4	n/a	n/a	n/a	1	n/a
495.535145299975	0	10	foot step	3	3	n/a	n/a	n/a	1	n/a
496.15514529997	0	10	foot step	2	2	n/a	n/a	n/a	1	n/a
496.835145300021	0	10	foot step	1	1	n/a	n/a	n/a	1	n/a
497.435145299998	0	10	foot step	2	2	n/a	n/a	n/a	1	n/a
500.079999999958	5	10	stimulus	n/a	n/a	white X	n/a	n/a	1	n/a
515.859999999986	23.02	11	stimulus	n/a	n/a	white X	n/a	n/a	1	n/a
538.888810899924	9.2235693000257	11	stimulus	n/a	n/a	CQQOQOCC	0	0	1	n/a
539.878810899914	0	11	foot step	4	4	n/a	n/a	n/a	1	n/a
540.468810899882	0	11	foot step	3	3	n/a	n/a	n/a	1	n/a
541.098810899886	0	11	foot step	4	4	n/a	n/a	n/a	1	n/a
541.728810899891	0	11	foot step	1	1	n/a	n/a	n/a	1	n/a
542.338810899877	0	11	foot step	4	4	n/a	n/a	n/a	1	n/a
543.008810899919	0	11	foot step	1	1	n/a	n/a	n/a	1	n/a
543.628810899914	0	11	foot step	2	2	n/a	n/a	n/a	1	n/a
544.298810899956	0	11	foot step	4	4	n/a	n/a	n/a	1	n/a
544.968810899882	0	11	foot step	3	3	n/a	n/a	n/a	1	n/a
545.648810899933	0	11	foot step	2	2	n/a	n/a	n/a	1	n/a
546.278810899938	0	11	foot step	1	1	n/a	n/a	n/a	1	n/a
546.888810899924	0	11	foot step	2	2	n/a	n/a	n/a	1	n/a
548.099999999977	5	11	stimulus	n/a	n/a	white X	n/a	n/a	1	n/a
