onset	duration	trial_type	Object_Cond	Validity_Cond	Obj_Accuracy	Obj_Acc_RT	Subseq_Recog	Subseq_Recog_RT	Subseq_Source_Mem_Acc	Subseq_Source_Mem_Acc_RT
4.000	1.000	Valid Other Obj Cue: valid cue where following stimulus was an untested or no response object	OBJ	V	1	ERR	UT	UT	UT	UT
10.000	0.500	Valid Other Obj: stimulus that was an untested or no response object and that followed a valid cue	OBJ	V	1	ERR	UT	UT	UT	UT
12.000	1.000	Valid LC-Hit Cue: valid cue where following object was a subsequent low confidence hit	OBJ	V	1	ERR	LC-HIT	 1.8763	1	2.0438
16.000	0.500	Valid LC-Hit Obj: object that was a subsequent low confidence hit and that followed a valid cue	OBJ	V	1	ERR	LC-HIT	 1.8763	1	2.0438
18.000	1.000	Valid Other Greeble Cue: valid cue where following stimulus was an untested or no response greeble	GRE	V	1	ERR	UT	UT	UT	UT
24.000	0.500	Valid Other Greeble: stimulus that was an untested or no response greeble and that followed a valid cue	GRE	V	1	ERR	UT	UT	UT	UT
28.000	1.000	Invalid LC-Hit Cue: invalid cue where following object was a subsequent low confidence hit	OBJ	NV	1	ERR	LC-HIT	 2.1257	1	0.37527
32.000	0.500	Invalid LC-Hit Obj: object that was a subsequent low confidence hit and that followed an invalid cue	OBJ	NV	1	ERR	LC-HIT	 2.1257	1	0.37527
36.000	1.000	Valid Other Obj Cue: valid cue where following stimulus was an untested or no response object	OBJ	V	1	ERR	UT	UT	UT	UT
42.000	0.500	Valid Other Obj: stimulus that was an untested or no response object and that followed a valid cue	OBJ	V	1	ERR	UT	UT	UT	UT
44.000	1.000	Valid Other Greeble Cue: valid cue where following stimulus was an untested or no response greeble	GRE	V	1	ERR	UT	UT	UT	UT
46.000	0.500	Valid Other Greeble: stimulus that was an untested or no response greeble and that followed a valid cue	GRE	V	1	ERR	UT	UT	UT	UT
48.000	1.000	Valid Other Greeble Cue: valid cue where following stimulus was an untested or no response greeble	GRE	V	1	ERR	UT	UT	UT	UT
52.000	0.500	Valid Other Greeble: stimulus that was an untested or no response greeble and that followed a valid cue	GRE	V	1	ERR	UT	UT	UT	UT
54.000	1.000	Valid LC-Hit Cue: valid cue where following object was a subsequent low confidence hit	OBJ	V	1	ERR	LC-HIT	 2.3968	1	0.10546
60.000	0.500	Valid LC-Hit Obj: object that was a subsequent low confidence hit and that followed a valid cue	OBJ	V	1	ERR	LC-HIT	 2.3968	1	0.10546
62.000	1.000	Invalid Miss Cue: invalid cue where following object was a subsequent miss	OBJ	NV	1	ERR	LC-MISS	 3.7598	UT	UT
64.000	0.500	Invalid Miss Obj: object that was a subsequent miss and that followed an invalid cue	OBJ	NV	1	ERR	LC-MISS	 3.7598	UT	UT
66.000	1.000	Valid Other Greeble Cue: valid cue where following stimulus was an untested or no response greeble	GRE	V	1	ERR	UT	UT	UT	UT
72.000	0.500	Valid Other Greeble: stimulus that was an untested or no response greeble and that followed a valid cue	GRE	V	1	ERR	UT	UT	UT	UT
74.000	1.000	Valid Other Greeble Cue: valid cue where following stimulus was an untested or no response greeble	GRE	V	1	ERR	UT	UT	UT	UT
76.000	0.500	Valid Other Greeble: stimulus that was an untested or no response greeble and that followed a valid cue	GRE	V	1	ERR	UT	UT	UT	UT
78.000	1.000	Valid LC-Hit Cue: valid cue where following object was a subsequent low confidence hit	OBJ	V	1	ERR	LC-HIT	  1.776	1	0.050449
82.000	0.500	Valid LC-Hit Obj: object that was a subsequent low confidence hit and that followed a valid cue	OBJ	V	1	ERR	LC-HIT	  1.776	1	0.050449
84.000	1.000	Valid HC-Hit Cue: valid cue where following object was a subsequent high confidence hit	OBJ	V	1	ERR	HC-HIT	 1.3329	0	0.072925
86.000	0.500	Valid HC-Hit Obj: object that was a subsequent high confidence hit and that followed a valid cue	OBJ	V	1	ERR	HC-HIT	 1.3329	0	0.072925
88.000	1.000	Valid LC-Hit Cue: valid cue where following object was a subsequent low confidence hit	OBJ	V	1	ERR	LC-HIT	 1.6241	1	2.0173
90.000	0.500	Valid LC-Hit Obj: object that was a subsequent low confidence hit and that followed a valid cue	OBJ	V	1	ERR	LC-HIT	 1.6241	1	2.0173
92.000	1.000	Invalid Miss Cue: invalid cue where following object was a subsequent miss	OBJ	NV	1	ERR	LC-MISS	 2.1982	UT	UT
96.000	0.500	Invalid Miss Obj: object that was a subsequent miss and that followed an invalid cue	OBJ	NV	1	ERR	LC-MISS	 2.1982	UT	UT
98.000	1.000	Valid LC-Hit Cue: valid cue where following object was a subsequent low confidence hit	OBJ	V	1	ERR	LC-HIT	 1.3493	1	0.10738
104.000	0.500	Valid LC-Hit Obj: object that was a subsequent low confidence hit and that followed a valid cue	OBJ	V	1	ERR	LC-HIT	 1.3493	1	0.10738
106.000	1.000	Valid HC-Hit Cue: valid cue where following object was a subsequent high confidence hit	OBJ	V	1	ERR	HC-HIT	 1.3342	1	0.88662
110.000	0.500	Valid HC-Hit Obj: object that was a subsequent high confidence hit and that followed a valid cue	OBJ	V	1	ERR	HC-HIT	 1.3342	1	0.88662
112.000	1.000	Valid Miss Cue: valid cue where following object was a subsequent miss	OBJ	V	1	ERR	LC-MISS	 1.9322	UT	UT
114.000	0.500	Valid Miss Obj: object that was a subsequent miss and that followed a valid cue	OBJ	V	1	ERR	LC-MISS	 1.9322	UT	UT
116.000	1.000	Valid Other Greeble Cue: valid cue where following stimulus was an untested or no response greeble	GRE	V	1	ERR	UT	UT	UT	UT
122.000	0.500	Valid Other Greeble: stimulus that was an untested or no response greeble and that followed a valid cue	GRE	V	1	ERR	UT	UT	UT	UT
126.000	1.000	Valid HC-Hit Cue: valid cue where following object was a subsequent high confidence hit	OBJ	V	1	ERR	HC-HIT	 1.7186	1	0.067276
132.000	0.500	Valid HC-Hit Obj: object that was a subsequent high confidence hit and that followed a valid cue	OBJ	V	1	ERR	HC-HIT	 1.7186	1	0.067276
134.000	1.000	Valid Other Greeble Cue: valid cue where following stimulus was an untested or no response greeble	GRE	V	1	ERR	UT	UT	UT	UT
140.000	0.500	Valid Other Greeble: stimulus that was an untested or no response greeble and that followed a valid cue	GRE	V	1	ERR	UT	UT	UT	UT
142.000	1.000	Valid HC-Hit Cue: valid cue where following object was a subsequent high confidence hit	OBJ	V	1	ERR	HC-HIT	  1.334	1	0.080275
144.000	0.500	Valid HC-Hit Obj: object that was a subsequent high confidence hit and that followed a valid cue	OBJ	V	1	ERR	HC-HIT	  1.334	1	0.080275
146.000	1.000	Invalid Other Greeble Cue: invalid cue where following stimulus was an untested or no response greeble	GRE	NV	1	ERR	UT	UT	UT	UT
148.000	0.500	Invalid Other Greeble: stimulus that was an untested or no response greeble and that followed a invalid cue	GRE	NV	1	ERR	UT	UT	UT	UT
150.000	1.000	Valid HC-Hit Cue: valid cue where following object was a subsequent high confidence hit	OBJ	V	1	ERR	HC-HIT	 2.2123	1	0.090263
156.000	0.500	Valid HC-Hit Obj: object that was a subsequent high confidence hit and that followed a valid cue	OBJ	V	1	ERR	HC-HIT	 2.2123	1	0.090263
160.000	1.000	Valid Miss Cue: valid cue where following object was a subsequent miss	OBJ	V	1	ERR	LC-MISS	 1.4138	UT	UT
166.000	0.500	Valid Miss Obj: object that was a subsequent miss and that followed a valid cue	OBJ	V	1	ERR	LC-MISS	 1.4138	UT	UT
168.000	1.000	Invalid Miss Cue: invalid cue where following object was a subsequent miss	OBJ	NV	1	ERR	LC-MISS	 1.3049	UT	UT
170.000	0.500	Invalid Miss Obj: object that was a subsequent miss and that followed an invalid cue	OBJ	NV	1	ERR	LC-MISS	 1.3049	UT	UT
174.000	1.000	Valid Other Greeble Cue: valid cue where following stimulus was an untested or no response greeble	GRE	V	1	ERR	UT	UT	UT	UT
180.000	0.500	Valid Other Greeble: stimulus that was an untested or no response greeble and that followed a valid cue	GRE	V	1	ERR	UT	UT	UT	UT
182.000	1.000	Valid HC-Hit Cue: valid cue where following object was a subsequent high confidence hit	OBJ	V	1	ERR	HC-HIT	 1.5731	1	0.69382
188.000	0.500	Valid HC-Hit Obj: object that was a subsequent high confidence hit and that followed a valid cue	OBJ	V	1	ERR	HC-HIT	 1.5731	1	0.69382
190.000	1.000	Valid Other Obj Cue: valid cue where following stimulus was an untested or no response object	OBJ	V	1	ERR	UT	UT	UT	UT
196.000	0.500	Valid Other Obj: stimulus that was an untested or no response object and that followed a valid cue	OBJ	V	1	ERR	UT	UT	UT	UT
