onset	duration	trial_type	Object_Cond	Validity_Cond	Obj_Accuracy	Obj_Acc_RT	Subseq_Recog	Subseq_Recog_RT	Subseq_Source_Mem_Acc	Subseq_Source_Mem_Acc_RT
4.003	1.000	Valid Other Obj Cue: valid cue where following stimulus was an untested or no response object	OBJ	V	1	 1.0799	UT	UT	UT	UT
10.003	0.500	Valid Other Obj: stimulus that was an untested or no response object and that followed a valid cue	OBJ	V	1	 1.0799	UT	UT	UT	UT
12.002	1.000	Valid HC-Hit Cue: valid cue where following object was a subsequent high confidence hit	OBJ	V	NR	NR	HC-HIT	 1.6765	0	2.283
14.002	0.500	Valid HC-Hit Obj: object that was a subsequent high confidence hit and that followed a valid cue	OBJ	V	NR	NR	HC-HIT	 1.6765	0	2.283
18.002	1.000	Valid Miss Cue: valid cue where following object was a subsequent miss	OBJ	V	1	0.61672	LC-MISS	 2.7253	UT	UT
24.002	0.500	Valid Miss Obj: object that was a subsequent miss and that followed a valid cue	OBJ	V	1	0.61672	LC-MISS	 2.7253	UT	UT
26.001	1.000	Valid Other Greeble Cue: valid cue where following stimulus was an untested or no response greeble	GRE	V	1	0.66493	UT	UT	UT	UT
30.001	0.500	Valid Other Greeble: stimulus that was an untested or no response greeble and that followed a valid cue	GRE	V	1	0.66493	UT	UT	UT	UT
32.001	1.000	Valid Miss Cue: valid cue where following object was a subsequent miss	OBJ	V	1	0.68981	LC-MISS	 1.5332	UT	UT
38.001	0.500	Valid Miss Obj: object that was a subsequent miss and that followed a valid cue	OBJ	V	1	0.68981	LC-MISS	 1.5332	UT	UT
40.002	1.000	Valid Other Obj Cue: valid cue where following stimulus was an untested or no response object	OBJ	V	1	0.73289	UT	UT	UT	UT
42.002	0.500	Valid Other Obj: stimulus that was an untested or no response object and that followed a valid cue	OBJ	V	1	0.73289	UT	UT	UT	UT
44.001	1.000	Valid Other Greeble Cue: valid cue where following stimulus was an untested or no response greeble	GRE	V	1	0.61449	UT	UT	UT	UT
48.001	0.500	Valid Other Greeble: stimulus that was an untested or no response greeble and that followed a valid cue	GRE	V	1	0.61449	UT	UT	UT	UT
50.002	1.000	Valid Miss Cue: valid cue where following object was a subsequent miss	OBJ	V	1	0.72197	LC-MISS	 2.8126	UT	UT
52.002	0.500	Valid Miss Obj: object that was a subsequent miss and that followed a valid cue	OBJ	V	1	0.72197	LC-MISS	 2.8126	UT	UT
54.002	1.000	Invalid HC-Hit Cue: invalid cue where following object was a subsequent high confidence hit	OBJ	NV	1	 1.1228	HC-HIT	 2.2506	NR	NR
58.002	0.500	Invalid HC-Hit Obj: object that was a subsequent high confidence hit and that followed an invalid cue	OBJ	NV	1	 1.1228	HC-HIT	 2.2506	NR	NR
60.001	1.000	Valid Miss Cue: valid cue where following object was a subsequent miss	OBJ	V	NR	NR	LC-MISS	 1.3949	UT	UT
62.001	0.500	Valid Miss Obj: object that was a subsequent miss and that followed a valid cue	OBJ	V	NR	NR	LC-MISS	 1.3949	UT	UT
64.001	1.000	Valid HC-Hit Cue: valid cue where following object was a subsequent high confidence hit	OBJ	V	1	0.50532	HC-HIT	 1.2237	1	0.38624
68.001	0.500	Valid HC-Hit Obj: object that was a subsequent high confidence hit and that followed a valid cue	OBJ	V	1	0.50532	HC-HIT	 1.2237	1	0.38624
70.002	1.000	Valid LC-Hit Cue: valid cue where following object was a subsequent low confidence hit	OBJ	V	1	0.51845	LC-HIT	 1.4072	0	0.5557
72.002	0.500	Valid LC-Hit Obj: object that was a subsequent low confidence hit and that followed a valid cue	OBJ	V	1	0.51845	LC-HIT	 1.4072	0	0.5557
74.001	1.000	Valid Other Greeble Cue: valid cue where following stimulus was an untested or no response greeble	GRE	V	1	0.65267	UT	UT	UT	UT
80.001	0.500	Valid Other Greeble: stimulus that was an untested or no response greeble and that followed a valid cue	GRE	V	1	0.65267	UT	UT	UT	UT
82.002	1.000	Valid Miss Cue: valid cue where following object was a subsequent miss	OBJ	V	1	0.73222	LC-MISS	 2.3166	UT	UT
88.002	0.500	Valid Miss Obj: object that was a subsequent miss and that followed a valid cue	OBJ	V	1	0.73222	LC-MISS	 2.3166	UT	UT
90.001	1.000	Valid HC-Hit Cue: valid cue where following object was a subsequent high confidence hit	OBJ	V	1	0.52511	HC-HIT	 2.0914	0	2.1451
94.001	0.500	Valid HC-Hit Obj: object that was a subsequent high confidence hit and that followed a valid cue	OBJ	V	1	0.52511	HC-HIT	 2.0914	0	2.1451
98.002	1.000	Valid Miss Cue: valid cue where following object was a subsequent miss	OBJ	V	1	0.54149	LC-MISS	 2.3323	UT	UT
102.002	0.500	Valid Miss Obj: object that was a subsequent miss and that followed a valid cue	OBJ	V	1	0.54149	LC-MISS	 2.3323	UT	UT
104.001	1.000	Invalid Miss Cue: invalid cue where following object was a subsequent miss	OBJ	NV	1	0.81605	LC-MISS	 1.0309	UT	UT
108.001	0.500	Invalid Miss Obj: object that was a subsequent miss and that followed an invalid cue	OBJ	NV	1	0.81605	LC-MISS	 1.0309	UT	UT
112.002	1.000	Valid Other Obj Cue: valid cue where following stimulus was an untested or no response object	OBJ	V	1	0.52439	UT	UT	UT	UT
118.002	0.500	Valid Other Obj: stimulus that was an untested or no response object and that followed a valid cue	OBJ	V	1	0.52439	UT	UT	UT	UT
120.001	1.000	Valid Other Greeble Cue: valid cue where following stimulus was an untested or no response greeble	GRE	V	1	0.63064	UT	UT	UT	UT
124.001	0.500	Valid Other Greeble: stimulus that was an untested or no response greeble and that followed a valid cue	GRE	V	1	0.63064	UT	UT	UT	UT
126.002	1.000	Valid LC-Hit Cue: valid cue where following object was a subsequent low confidence hit	OBJ	V	1	0.46361	LC-HIT	 1.4326	1	1.8862
128.002	0.500	Valid LC-Hit Obj: object that was a subsequent low confidence hit and that followed a valid cue	OBJ	V	1	0.46361	LC-HIT	 1.4326	1	1.8862
130.002	1.000	Invalid LC-Hit Cue: invalid cue where following object was a subsequent low confidence hit	OBJ	NV	1	0.79886	LC-HIT	 1.8674	1	0.93307
132.002	0.500	Invalid LC-Hit Obj: object that was a subsequent low confidence hit and that followed an invalid cue	OBJ	NV	1	0.79886	LC-HIT	 1.8674	1	0.93307
138.002	1.000	Valid Other Greeble Cue: valid cue where following stimulus was an untested or no response greeble	GRE	V	1	0.58464	UT	UT	UT	UT
144.002	0.500	Valid Other Greeble: stimulus that was an untested or no response greeble and that followed a valid cue	GRE	V	1	0.58464	UT	UT	UT	UT
146.001	1.000	Valid LC-Hit Cue: valid cue where following object was a subsequent low confidence hit	OBJ	V	1	0.57831	LC-HIT	 2.2774	0	0.27949
150.001	0.500	Valid LC-Hit Obj: object that was a subsequent low confidence hit and that followed a valid cue	OBJ	V	1	0.57831	LC-HIT	 2.2774	0	0.27949
154.001	1.000	Valid LC-Hit Cue: valid cue where following object was a subsequent low confidence hit	OBJ	V	1	0.56585	LC-HIT	 1.5967	1	1.0392
156.001	0.500	Valid LC-Hit Obj: object that was a subsequent low confidence hit and that followed a valid cue	OBJ	V	1	0.56585	LC-HIT	 1.5967	1	1.0392
158.002	1.000	Valid Miss Cue: valid cue where following object was a subsequent miss	OBJ	V	1	0.48384	LC-MISS	 2.2264	UT	UT
162.002	0.500	Valid Miss Obj: object that was a subsequent miss and that followed a valid cue	OBJ	V	1	0.48384	LC-MISS	 2.2264	UT	UT
164.001	1.000	Valid Other Greeble Cue: valid cue where following stimulus was an untested or no response greeble	GRE	V	1	0.58982	UT	UT	UT	UT
170.001	0.500	Valid Other Greeble: stimulus that was an untested or no response greeble and that followed a valid cue	GRE	V	1	0.58982	UT	UT	UT	UT
174.002	1.000	Valid HC-Hit Cue: valid cue where following object was a subsequent high confidence hit	OBJ	V	1	 0.6489	HC-HIT	0.86948	1	0.52241
176.002	0.500	Valid HC-Hit Obj: object that was a subsequent high confidence hit and that followed a valid cue	OBJ	V	1	 0.6489	HC-HIT	0.86948	1	0.52241
180.001	1.000	Valid Other Greeble Cue: valid cue where following stimulus was an untested or no response greeble	GRE	V	1	0.52789	UT	UT	UT	UT
184.001	0.500	Valid Other Greeble: stimulus that was an untested or no response greeble and that followed a valid cue	GRE	V	1	0.52789	UT	UT	UT	UT
186.001	1.000	Valid LC-Hit Cue: valid cue where following object was a subsequent low confidence hit	OBJ	V	1	0.60019	LC-HIT	  1.973	0	1.4213
192.001	0.500	Valid LC-Hit Obj: object that was a subsequent low confidence hit and that followed a valid cue	OBJ	V	1	0.60019	LC-HIT	  1.973	0	1.4213
194.002	1.000	Invalid LC-Hit Cue: invalid cue where following object was a subsequent low confidence hit	OBJ	NV	1	0.94747	LC-HIT	 2.1506	1	0.27828
196.002	0.500	Invalid LC-Hit Obj: object that was a subsequent low confidence hit and that followed an invalid cue	OBJ	NV	1	0.94747	LC-HIT	 2.1506	1	0.27828
200.002	1.000	Valid Miss Cue: valid cue where following object was a subsequent miss	OBJ	V	1	 0.4546	LC-MISS	 2.2697	UT	UT
204.002	0.500	Valid Miss Obj: object that was a subsequent miss and that followed a valid cue	OBJ	V	1	 0.4546	LC-MISS	 2.2697	UT	UT
206.002	1.000	Valid Other Obj Cue: valid cue where following stimulus was an untested or no response object	OBJ	V	1	0.59423	UT	UT	UT	UT
212.002	0.500	Valid Other Obj: stimulus that was an untested or no response object and that followed a valid cue	OBJ	V	1	0.59423	UT	UT	UT	UT
214.001	1.000	Valid Other Greeble Cue: valid cue where following stimulus was an untested or no response greeble	GRE	V	1	0.54517	UT	UT	UT	UT
220.001	0.500	Valid Other Greeble: stimulus that was an untested or no response greeble and that followed a valid cue	GRE	V	1	0.54517	UT	UT	UT	UT
224.002	1.000	Valid HC-Hit Cue: valid cue where following object was a subsequent high confidence hit	OBJ	V	1	0.60932	HC-HIT	 1.1386	1	0.28492
228.002	0.500	Valid HC-Hit Obj: object that was a subsequent high confidence hit and that followed a valid cue	OBJ	V	1	0.60932	HC-HIT	 1.1386	1	0.28492
234.002	1.000	Invalid Miss Cue: invalid cue where following object was a subsequent miss	OBJ	NV	1	 0.9495	LC-MISS	 1.9655	UT	UT
240.002	0.500	Invalid Miss Obj: object that was a subsequent miss and that followed an invalid cue	OBJ	NV	1	 0.9495	LC-MISS	 1.9655	UT	UT
242.002	1.000	Valid Miss Cue: valid cue where following object was a subsequent miss	OBJ	V	1	 0.4744	LC-MISS	 1.0603	UT	UT
246.002	0.500	Valid Miss Obj: object that was a subsequent miss and that followed a valid cue	OBJ	V	1	 0.4744	LC-MISS	 1.0603	UT	UT
248.001	1.000	Valid HC-Hit Cue: valid cue where following object was a subsequent high confidence hit	OBJ	V	1	0.42889	HC-HIT	 1.6413	1	0.28306
252.001	0.500	Valid HC-Hit Obj: object that was a subsequent high confidence hit and that followed a valid cue	OBJ	V	1	0.42889	HC-HIT	 1.6413	1	0.28306
254.002	1.000	Valid Other Greeble Cue: valid cue where following stimulus was an untested or no response greeble	GRE	V	1	0.57983	UT	UT	UT	UT
256.002	0.500	Valid Other Greeble: stimulus that was an untested or no response greeble and that followed a valid cue	GRE	V	1	0.57983	UT	UT	UT	UT
258.001	1.000	Invalid Miss Cue: invalid cue where following object was a subsequent miss	OBJ	NV	1	0.78279	HC-MISS	 1.7492	UT	UT
260.001	0.500	Invalid Miss Obj: object that was a subsequent miss and that followed an invalid cue	OBJ	NV	1	0.78279	HC-MISS	 1.7492	UT	UT
262.002	1.000	Valid Other Greeble Cue: valid cue where following stimulus was an untested or no response greeble	GRE	V	1	0.52675	UT	UT	UT	UT
268.002	0.500	Valid Other Greeble: stimulus that was an untested or no response greeble and that followed a valid cue	GRE	V	1	0.52675	UT	UT	UT	UT
270.002	1.000	Valid Miss Cue: valid cue where following object was a subsequent miss	OBJ	V	1	0.65386	LC-MISS	 2.4209	UT	UT
276.002	0.500	Valid Miss Obj: object that was a subsequent miss and that followed a valid cue	OBJ	V	1	0.65386	LC-MISS	 2.4209	UT	UT
280.001	1.000	Valid HC-Hit Cue: valid cue where following object was a subsequent high confidence hit	OBJ	V	1	0.68393	HC-HIT	 1.6618	1	0.43659
286.001	0.500	Valid HC-Hit Obj: object that was a subsequent high confidence hit and that followed a valid cue	OBJ	V	1	0.68393	HC-HIT	 1.6618	1	0.43659
288.001	1.000	Valid Other Obj Cue: valid cue where following stimulus was an untested or no response object	OBJ	V	1	0.53539	UT	UT	UT	UT
290.001	0.500	Valid Other Obj: stimulus that was an untested or no response object and that followed a valid cue	OBJ	V	1	0.53539	UT	UT	UT	UT
292.002	1.000	Valid LC-Hit Cue: valid cue where following object was a subsequent low confidence hit	OBJ	V	1	0.57812	LC-HIT	 2.0345	1	1.0055
296.002	0.500	Valid LC-Hit Obj: object that was a subsequent low confidence hit and that followed a valid cue	OBJ	V	1	0.57812	LC-HIT	 2.0345	1	1.0055
298.001	1.000	Invalid HC-Hit Cue: invalid cue where following object was a subsequent high confidence hit	OBJ	NV	1	0.94459	HC-HIT	  1.114	1	0.02445
304.001	0.500	Invalid HC-Hit Obj: object that was a subsequent high confidence hit and that followed an invalid cue	OBJ	NV	1	0.94459	HC-HIT	  1.114	1	0.02445
308.001	1.000	Valid Other Greeble Cue: valid cue where following stimulus was an untested or no response greeble	GRE	V	1	0.61991	UT	UT	UT	UT
310.001	0.500	Valid Other Greeble: stimulus that was an untested or no response greeble and that followed a valid cue	GRE	V	1	0.61991	UT	UT	UT	UT
312.002	1.000	Invalid LC-Hit Cue: invalid cue where following object was a subsequent low confidence hit	OBJ	NV	1	 1.0773	LC-HIT	 2.2993	0	0.34057
316.002	0.500	Invalid LC-Hit Obj: object that was a subsequent low confidence hit and that followed an invalid cue	OBJ	NV	1	 1.0773	LC-HIT	 2.2993	0	0.34057
318.001	1.000	Valid Other Greeble Cue: valid cue where following stimulus was an untested or no response greeble	GRE	V	NR	NR	UT	UT	UT	UT
320.001	0.500	Valid Other Greeble: stimulus that was an untested or no response greeble and that followed a valid cue	GRE	V	NR	NR	UT	UT	UT	UT
322.002	1.000	Valid Miss Cue: valid cue where following object was a subsequent miss	OBJ	V	1	0.73163	LC-MISS	  1.409	UT	UT
324.002	0.500	Valid Miss Obj: object that was a subsequent miss and that followed a valid cue	OBJ	V	1	0.73163	LC-MISS	  1.409	UT	UT
326.001	1.000	Valid Miss Cue: valid cue where following object was a subsequent miss	OBJ	V	1	0.53171	LC-MISS	 1.4462	UT	UT
332.001	0.500	Valid Miss Obj: object that was a subsequent miss and that followed a valid cue	OBJ	V	1	0.53171	LC-MISS	 1.4462	UT	UT
334.001	1.000	Valid Other Greeble Cue: valid cue where following stimulus was an untested or no response greeble	GRE	V	1	0.58788	UT	UT	UT	UT
340.001	0.500	Valid Other Greeble: stimulus that was an untested or no response greeble and that followed a valid cue	GRE	V	1	0.58788	UT	UT	UT	UT
342.001	1.000	Valid HC-Hit Cue: valid cue where following object was a subsequent high confidence hit	OBJ	V	1	0.94358	HC-HIT	 1.0903	1	0.56746
344.001	0.500	Valid HC-Hit Obj: object that was a subsequent high confidence hit and that followed a valid cue	OBJ	V	1	0.94358	HC-HIT	 1.0903	1	0.56746
346.002	1.000	Invalid Other Greeble Cue: invalid cue where following stimulus was an untested or no response greeble	GRE	NV	1	 1.0352	UT	UT	UT	UT
348.002	0.500	Invalid Other Greeble: stimulus that was an untested or no response greeble and that followed a invalid cue	GRE	NV	1	 1.0352	UT	UT	UT	UT
350.001	1.000	Valid LC-Hit Cue: valid cue where following object was a subsequent low confidence hit	OBJ	V	0	 0.4172	LC-HIT	 1.7643	1	0.2753
354.001	0.500	Valid LC-Hit Obj: object that was a subsequent low confidence hit and that followed a valid cue	OBJ	V	0	 0.4172	LC-HIT	 1.7643	1	0.2753
356.001	1.000	Valid Other Greeble Cue: valid cue where following stimulus was an untested or no response greeble	GRE	V	1	0.68942	UT	UT	UT	UT
358.001	0.500	Valid Other Greeble: stimulus that was an untested or no response greeble and that followed a valid cue	GRE	V	1	0.68942	UT	UT	UT	UT
360.002	1.000	Invalid Other Greeble Cue: invalid cue where following stimulus was an untested or no response greeble	GRE	NV	1	 1.0033	UT	UT	UT	UT
364.002	0.500	Invalid Other Greeble: stimulus that was an untested or no response greeble and that followed a invalid cue	GRE	NV	1	 1.0033	UT	UT	UT	UT
