onset	duration	trial_type	Object_Cond	Validity_Cond	Obj_Accuracy	Obj_Acc_RT	Subseq_Recog	Subseq_Recog_RT	Subseq_Source_Mem_Acc	Subseq_Source_Mem_Acc_RT
4.0012	1.0	Valid Other Obj Cue: valid cue where following stimulus was an untested or no response object	OBJ	V	1	0.51154	UT	UT	UT	UT
8.0012	0.5	Valid Other Obj: stimulus that was an untested or no response object and that followed a valid cue	OBJ	V	1	0.51154	UT	UT	UT	UT
10.0015	1.0	Valid Other Greeble Cue: valid cue where following stimulus was an untested or no response greeble	GRE	V	1	0.54527	UT	UT	UT	UT
14.0015	0.5	Valid Other Greeble: stimulus that was an untested or no response greeble and that followed a valid cue	GRE	V	1	0.54527	UT	UT	UT	UT
16.0022	1.0	Valid HC-Hit Cue: valid cue where following object was a subsequent high confidence hit	OBJ	V	1	0.55538	HC-HIT	 1.3526	1	0.048609
20.0022	0.5	Valid HC-Hit Obj: object that was a subsequent high confidence hit and that followed a valid cue	OBJ	V	1	0.55538	HC-HIT	 1.3526	1	0.048609
26.0018	1.0	Valid LC-Hit Cue: valid cue where following object was a subsequent low confidence hit	OBJ	V	1	0.56704	LC-HIT	 1.7234	0	0.15239
32.0018	0.5	Valid LC-Hit Obj: object that was a subsequent low confidence hit and that followed a valid cue	OBJ	V	1	0.56704	LC-HIT	 1.7234	0	0.15239
34.0019	1.0	Valid HC-Hit Cue: valid cue where following object was a subsequent high confidence hit	OBJ	V	1	0.54666	HC-HIT	 1.3514	1	0.15183
36.0019	0.5	Valid HC-Hit Obj: object that was a subsequent high confidence hit and that followed a valid cue	OBJ	V	1	0.54666	HC-HIT	 1.3514	1	0.15183
38.0008	1.0	Invalid LC-Hit Cue: invalid cue where following object was a subsequent low confidence hit	OBJ	NV	1	 1.0211	LC-HIT	 1.9999	1	0.51787
42.0008	0.5	Invalid LC-Hit Obj: object that was a subsequent low confidence hit and that followed an invalid cue	OBJ	NV	1	 1.0211	LC-HIT	 1.9999	1	0.51787
46.001000000000005	1.0	Valid Other Greeble Cue: valid cue where following stimulus was an untested or no response greeble	GRE	V	NR	NR	UT	UT	UT	UT
50.001000000000005	0.5	Valid Other Greeble: stimulus that was an untested or no response greeble and that followed a valid cue	GRE	V	NR	NR	UT	UT	UT	UT
52.0009	1.0	Valid Miss Cue: valid cue where following object was a subsequent miss	OBJ	V	1	0.59175	LC-MISS	 1.4457	UT	UT
54.0009	0.5	Valid Miss Obj: object that was a subsequent miss and that followed a valid cue	OBJ	V	1	0.59175	LC-MISS	 1.4457	UT	UT
56.0012	1.0	Valid HC-Hit Cue: valid cue where following object was a subsequent high confidence hit	OBJ	V	1	0.48375	HC-HIT	 1.2181	1	1.6099
62.0012	0.5	Valid HC-Hit Obj: object that was a subsequent high confidence hit and that followed a valid cue	OBJ	V	1	0.48375	HC-HIT	 1.2181	1	1.6099
64.0014	1.0	Invalid LC-Hit Cue: invalid cue where following object was a subsequent low confidence hit	OBJ	NV	1	  1.012	LC-HIT	 2.8737	1	0.42156
66.0014	0.5	Invalid LC-Hit Obj: object that was a subsequent low confidence hit and that followed an invalid cue	OBJ	NV	1	  1.012	LC-HIT	 2.8737	1	0.42156
72.0025	1.0	Valid Miss Cue: valid cue where following object was a subsequent miss	OBJ	V	1	0.52802	LC-MISS	 1.0074	UT	UT
76.0025	0.5	Valid Miss Obj: object that was a subsequent miss and that followed a valid cue	OBJ	V	1	0.52802	LC-MISS	 1.0074	UT	UT
78.0009	1.0	Valid HC-Hit Cue: valid cue where following object was a subsequent high confidence hit	OBJ	V	1	0.53528	HC-HIT	 1.5694	1	0.13178
84.0009	0.5	Valid HC-Hit Obj: object that was a subsequent high confidence hit and that followed a valid cue	OBJ	V	1	0.53528	HC-HIT	 1.5694	1	0.13178
86.0011	1.0	Valid Other Greeble Cue: valid cue where following stimulus was an untested or no response greeble	GRE	V	1	0.56736	UT	UT	UT	UT
92.0011	0.5	Valid Other Greeble: stimulus that was an untested or no response greeble and that followed a valid cue	GRE	V	1	0.56736	UT	UT	UT	UT
94.001	1.0	Valid LC-Hit Cue: valid cue where following object was a subsequent low confidence hit	OBJ	V	1	0.44508	LC-HIT	 2.0636	0	0.12892
98.001	0.5	Valid LC-Hit Obj: object that was a subsequent low confidence hit and that followed a valid cue	OBJ	V	1	0.44508	LC-HIT	 2.0636	0	0.12892
100.0022	1.0	Invalid LC-Hit Cue: invalid cue where following object was a subsequent low confidence hit	OBJ	NV	1	 0.8511	LC-HIT	 1.8892	1	0.051021
104.0022	0.5	Invalid LC-Hit Obj: object that was a subsequent low confidence hit and that followed an invalid cue	OBJ	NV	1	 0.8511	LC-HIT	 1.8892	1	0.051021
106.001	1.0	Invalid Miss Cue: invalid cue where following object was a subsequent miss	OBJ	NV	1	 1.3995	LC-MISS	 3.0469	UT	UT
108.001	0.5	Invalid Miss Obj: object that was a subsequent miss and that followed an invalid cue	OBJ	NV	1	 1.3995	LC-MISS	 3.0469	UT	UT
112.0017	1.0	Valid HC-Hit Cue: valid cue where following object was a subsequent high confidence hit	OBJ	V	1	0.52026	HC-HIT	 1.2241	1	2.4311
114.0017	0.5	Valid HC-Hit Obj: object that was a subsequent high confidence hit and that followed a valid cue	OBJ	V	1	0.52026	HC-HIT	 1.2241	1	2.4311
116.0018	1.0	Valid Other Greeble Cue: valid cue where following stimulus was an untested or no response greeble	GRE	V	1	0.74812	UT	UT	UT	UT
118.0018	0.5	Valid Other Greeble: stimulus that was an untested or no response greeble and that followed a valid cue	GRE	V	1	0.74812	UT	UT	UT	UT
120.001	1.0	Valid HC-Hit Cue: valid cue where following object was a subsequent high confidence hit	OBJ	V	1	0.55025	HC-HIT	 1.7967	1	0.45633
124.001	0.5	Valid HC-Hit Obj: object that was a subsequent high confidence hit and that followed a valid cue	OBJ	V	1	0.55025	HC-HIT	 1.7967	1	0.45633
126.0016	1.0	Valid Other Greeble Cue: valid cue where following stimulus was an untested or no response greeble	GRE	V	1	0.51751	UT	UT	UT	UT
132.0016	0.5	Valid Other Greeble: stimulus that was an untested or no response greeble and that followed a valid cue	GRE	V	1	0.51751	UT	UT	UT	UT
136.0014	1.0	Valid LC-Hit Cue: valid cue where following object was a subsequent low confidence hit	OBJ	V	1	0.58351	LC-HIT	 2.9728	1	1.7871
138.0014	0.5	Valid LC-Hit Obj: object that was a subsequent low confidence hit and that followed a valid cue	OBJ	V	1	0.58351	LC-HIT	 2.9728	1	1.7871
140.0012	1.0	Valid LC-Hit Cue: valid cue where following object was a subsequent low confidence hit	OBJ	V	1	 0.4922	LC-HIT	 1.3527	0	1.1959
146.0012	0.5	Valid LC-Hit Obj: object that was a subsequent low confidence hit and that followed a valid cue	OBJ	V	1	 0.4922	LC-HIT	 1.3527	0	1.1959
150.0015	1.0	Valid LC-Hit Cue: valid cue where following object was a subsequent low confidence hit	OBJ	V	1	0.57674	LC-HIT	 1.4533	1	0.24826
152.0015	0.5	Valid LC-Hit Obj: object that was a subsequent low confidence hit and that followed a valid cue	OBJ	V	1	0.57674	LC-HIT	 1.4533	1	0.24826
154.0015	1.0	Valid Other Greeble Cue: valid cue where following stimulus was an untested or no response greeble	GRE	V	1	0.57566	UT	UT	UT	UT
160.0015	0.5	Valid Other Greeble: stimulus that was an untested or no response greeble and that followed a valid cue	GRE	V	1	0.57566	UT	UT	UT	UT
162.0019	1.0	Valid Other Greeble Cue: valid cue where following stimulus was an untested or no response greeble	GRE	V	1	0.50575	UT	UT	UT	UT
168.0019	0.5	Valid Other Greeble: stimulus that was an untested or no response greeble and that followed a valid cue	GRE	V	1	0.50575	UT	UT	UT	UT
170.0008	1.0	Valid Other Greeble Cue: valid cue where following stimulus was an untested or no response greeble	GRE	V	NR	NR	UT	UT	UT	UT
172.0008	0.5	Valid Other Greeble: stimulus that was an untested or no response greeble and that followed a valid cue	GRE	V	NR	NR	UT	UT	UT	UT
174.0019	1.0	Invalid LC-Hit Cue: invalid cue where following object was a subsequent low confidence hit	OBJ	NV	1	0.56497	LC-HIT	 3.0185	0	0.37113
178.0019	0.5	Invalid LC-Hit Obj: object that was a subsequent low confidence hit and that followed an invalid cue	OBJ	NV	1	0.56497	LC-HIT	 3.0185	0	0.37113
180.0019	1.0	Valid HC-Hit Cue: valid cue where following object was a subsequent high confidence hit	OBJ	V	1	0.50988	HC-HIT	 1.6059	1	0.31121
186.0019	0.5	Valid HC-Hit Obj: object that was a subsequent high confidence hit and that followed a valid cue	OBJ	V	1	0.50988	HC-HIT	 1.6059	1	0.31121
188.0014	1.0	Valid Other Greeble Cue: valid cue where following stimulus was an untested or no response greeble	GRE	V	1	0.57604	UT	UT	UT	UT
190.0014	0.5	Valid Other Greeble: stimulus that was an untested or no response greeble and that followed a valid cue	GRE	V	1	0.57604	UT	UT	UT	UT
192.00099999999998	1.0	Invalid Other Greeble Cue: invalid cue where following stimulus was an untested or no response greeble	GRE	NV	1	0.80975	UT	UT	UT	UT
196.00099999999998	0.5	Invalid Other Greeble: stimulus that was an untested or no response greeble and that followed a invalid cue	GRE	NV	1	0.80975	UT	UT	UT	UT
198.0015	1.0	Valid HC-Hit Cue: valid cue where following object was a subsequent high confidence hit	OBJ	V	1	 0.6622	HC-HIT	 1.6349	1	2.2082
200.0015	0.5	Valid HC-Hit Obj: object that was a subsequent high confidence hit and that followed a valid cue	OBJ	V	1	 0.6622	HC-HIT	 1.6349	1	2.2082
202.00099999999998	1.0	Valid Other Obj Cue: valid cue where following stimulus was an untested or no response object	OBJ	V	1	 0.5098	UT	UT	UT	UT
208.00099999999998	0.5	Valid Other Obj: stimulus that was an untested or no response object and that followed a valid cue	OBJ	V	1	 0.5098	UT	UT	UT	UT
210.0009	1.0	Valid Miss Cue: valid cue where following object was a subsequent miss	OBJ	V	1	0.51807	LC-MISS	 1.9091	UT	UT
216.0009	0.5	Valid Miss Obj: object that was a subsequent miss and that followed a valid cue	OBJ	V	1	0.51807	LC-MISS	 1.9091	UT	UT
218.0019	1.0	Valid Other Greeble Cue: valid cue where following stimulus was an untested or no response greeble	GRE	V	1	0.60596	UT	UT	UT	UT
224.0019	0.5	Valid Other Greeble: stimulus that was an untested or no response greeble and that followed a valid cue	GRE	V	1	0.60596	UT	UT	UT	UT
226.00099999999998	1.0	Valid HC-Hit Cue: valid cue where following object was a subsequent high confidence hit	OBJ	V	1	0.61771	HC-HIT	 1.8589	1	0.91453
228.00099999999998	0.5	Valid HC-Hit Obj: object that was a subsequent high confidence hit and that followed a valid cue	OBJ	V	1	0.61771	HC-HIT	 1.8589	1	0.91453
230.0013	1.0	Valid Other Greeble Cue: valid cue where following stimulus was an untested or no response greeble	GRE	V	1	0.53164	UT	UT	UT	UT
232.0013	0.5	Valid Other Greeble: stimulus that was an untested or no response greeble and that followed a valid cue	GRE	V	1	0.53164	UT	UT	UT	UT
234.0016	1.0	Invalid LC-Hit Cue: invalid cue where following object was a subsequent low confidence hit	OBJ	NV	1	0.93951	LC-HIT	 1.8715	0	0.26892
240.0016	0.5	Invalid LC-Hit Obj: object that was a subsequent low confidence hit and that followed an invalid cue	OBJ	NV	1	0.93951	LC-HIT	 1.8715	0	0.26892
244.0019	1.0	Valid Other Greeble Cue: valid cue where following stimulus was an untested or no response greeble	GRE	V	1	0.61004	UT	UT	UT	UT
250.0019	0.5	Valid Other Greeble: stimulus that was an untested or no response greeble and that followed a valid cue	GRE	V	1	0.61004	UT	UT	UT	UT
254.0011	1.0	Valid Other Obj Cue: valid cue where following stimulus was an untested or no response object	OBJ	V	1	0.57803	UT	UT	UT	UT
258.0011	0.5	Valid Other Obj: stimulus that was an untested or no response object and that followed a valid cue	OBJ	V	1	0.57803	UT	UT	UT	UT
260.0008	1.0	Valid Miss Cue: valid cue where following object was a subsequent miss	OBJ	V	1	0.57861	LC-MISS	 2.2941	UT	UT
264.0008	0.5	Valid Miss Obj: object that was a subsequent miss and that followed a valid cue	OBJ	V	1	0.57861	LC-MISS	 2.2941	UT	UT
266.0011	1.0	Valid LC-Hit Cue: valid cue where following object was a subsequent low confidence hit	OBJ	V	NR	NR	LC-HIT	 2.2731	0	0.84691
270.0011	0.5	Valid LC-Hit Obj: object that was a subsequent low confidence hit and that followed a valid cue	OBJ	V	NR	NR	LC-HIT	 2.2731	0	0.84691
274.0012	1.0	Valid Other Obj Cue: valid cue where following stimulus was an untested or no response object	OBJ	V	1	0.46198	UT	UT	UT	UT
280.0012	0.5	Valid Other Obj: stimulus that was an untested or no response object and that followed a valid cue	OBJ	V	1	0.46198	UT	UT	UT	UT
282.0017	1.0	Valid Miss Cue: valid cue where following object was a subsequent miss	OBJ	V	1	0.57342	LC-MISS	 1.6097	UT	UT
284.0017	0.5	Valid Miss Obj: object that was a subsequent miss and that followed a valid cue	OBJ	V	1	0.57342	LC-MISS	 1.6097	UT	UT
288.0021	1.0	Invalid Other Greeble Cue: invalid cue where following stimulus was an untested or no response greeble	GRE	NV	1	 0.8322	UT	UT	UT	UT
290.0021	0.5	Invalid Other Greeble: stimulus that was an untested or no response greeble and that followed a invalid cue	GRE	NV	1	 0.8322	UT	UT	UT	UT
292.0019	1.0	Valid LC-Hit Cue: valid cue where following object was a subsequent low confidence hit	OBJ	V	NR	NR	LC-HIT	 1.8276	0	0.98739
296.0019	0.5	Valid LC-Hit Obj: object that was a subsequent low confidence hit and that followed a valid cue	OBJ	V	NR	NR	LC-HIT	 1.8276	0	0.98739
298.0014	1.0	Valid Miss Cue: valid cue where following object was a subsequent miss	OBJ	V	1	0.46242	LC-MISS	 1.4378	UT	UT
304.0014	0.5	Valid Miss Obj: object that was a subsequent miss and that followed a valid cue	OBJ	V	1	0.46242	LC-MISS	 1.4378	UT	UT
306.0017	1.0	Invalid LC-Hit Cue: invalid cue where following object was a subsequent low confidence hit	OBJ	NV	1	0.82873	LC-HIT	 2.0474	1	0.64611
308.0017	0.5	Invalid LC-Hit Obj: object that was a subsequent low confidence hit and that followed an invalid cue	OBJ	NV	1	0.82873	LC-HIT	 2.0474	1	0.64611
310.0011	1.0	Valid HC-Hit Cue: valid cue where following object was a subsequent high confidence hit	OBJ	V	1	0.45987	HC-HIT	  1.692	1	0.29104
314.0011	0.5	Valid HC-Hit Obj: object that was a subsequent high confidence hit and that followed a valid cue	OBJ	V	1	0.45987	HC-HIT	  1.692	1	0.29104
316.002	1.0	Valid Other Greeble Cue: valid cue where following stimulus was an untested or no response greeble	GRE	V	1	0.61783	UT	UT	UT	UT
318.002	0.5	Valid Other Greeble: stimulus that was an untested or no response greeble and that followed a valid cue	GRE	V	1	0.61783	UT	UT	UT	UT
320.0017	1.0	Valid HC-Hit Cue: valid cue where following object was a subsequent high confidence hit	OBJ	V	1	0.61426	HC-HIT	 2.6543	1	0.11582
322.0017	0.5	Valid HC-Hit Obj: object that was a subsequent high confidence hit and that followed a valid cue	OBJ	V	1	0.61426	HC-HIT	 2.6543	1	0.11582
326.001	1.0	Valid Other Obj Cue: valid cue where following stimulus was an untested or no response object	OBJ	V	1	0.52299	UT	UT	UT	UT
332.001	0.5	Valid Other Obj: stimulus that was an untested or no response object and that followed a valid cue	OBJ	V	1	0.52299	UT	UT	UT	UT
334.0015	1.0	Valid LC-Hit Cue: valid cue where following object was a subsequent low confidence hit	OBJ	V	NR	NR	LC-HIT	 2.0573	0	1.5463
338.0015	0.5	Valid LC-Hit Obj: object that was a subsequent low confidence hit and that followed a valid cue	OBJ	V	NR	NR	LC-HIT	 2.0573	0	1.5463
340.0015	1.0	Valid Miss Cue: valid cue where following object was a subsequent miss	OBJ	V	1	0.52748	LC-MISS	 1.9786	UT	UT
344.0015	0.5	Valid Miss Obj: object that was a subsequent miss and that followed a valid cue	OBJ	V	1	0.52748	LC-MISS	 1.9786	UT	UT
348.0013	1.0	Valid Other Greeble Cue: valid cue where following stimulus was an untested or no response greeble	GRE	V	1	0.58531	UT	UT	UT	UT
350.0013	0.5	Valid Other Greeble: stimulus that was an untested or no response greeble and that followed a valid cue	GRE	V	1	0.58531	UT	UT	UT	UT
352.001	1.0	Invalid HC-Hit Cue: invalid cue where following object was a subsequent high confidence hit	OBJ	NV	1	 1.1919	HC-HIT	 1.2629	1	0.17592
358.001	0.5	Invalid HC-Hit Obj: object that was a subsequent high confidence hit and that followed an invalid cue	OBJ	NV	1	 1.1919	HC-HIT	 1.2629	1	0.17592
360.0017	1.0	Valid Miss Cue: valid cue where following object was a subsequent miss	OBJ	V	1	 0.4863	LC-MISS	 0.9213	UT	UT
364.0017	0.5	Valid Miss Obj: object that was a subsequent miss and that followed a valid cue	OBJ	V	1	 0.4863	LC-MISS	 0.9213	UT	UT
