onset	duration	trial_type	TrialType	Stimulus	SSD	Response	RT	CorrectGo	SuccStop
0.0	1.5	failed stop	1	1	0.3	50	0.369	1	0
3.0	1.5	go	0	0	0.0	49	0.358	1	0
6.0	1.5	go	0	1	0.0	50	0.334	1	0
8.5	1.5	go	0	0	0.0	49	0.346	1	0
11.0	1.5	failed stop	1	1	0.3	50	0.406	1	0
14.0	1.5	go	0	0	0.0	49	0.31	1	0
16.125	1.5	go	0	0	0.0	49	0.433	1	0
18.625	1.5	go	0	1	0.0	50	0.421	1	0
20.625	1.5	go	0	1	0.0	50	0.413	1	0
22.75	1.5	go	0	0	0.0	49	0.384	1	0
25.0	1.5	go	0	0	0.0	49	0.406	1	0
27.75	1.5	successful stop	1	1	0.25	0	0.0	0	1
30.625	1.5	go	0	1	0.0	50	0.373	1	0
32.75	1.5	successful stop	1	1	0.25	0	0.0	0	1
35.0	1.5	go	0	0	0.0	49	0.326	1	0
38.0	1.5	go	0	0	0.0	49	0.542	1	0
41.5	1.5	successful stop	1	0	0.25	0	0.0	0	1
43.625	1.5	go	0	0	0.0	49	0.365	1	0
45.625	1.5	go	0	1	0.0	50	0.381	1	0
48.625	1.5	go	0	1	0.0	50	0.533	1	0
51.625	1.5	go	0	0	0.0	49	0.493	1	0
53.75	1.5	failed stop	1	0	0.3	49	0.48	1	0
55.75	1.5	go	0	1	0.0	50	0.392	1	0
58.5	1.5	go	0	1	0.0	50	0.442	1	0
61.625	1.5	go	0	0	0.0	49	0.557	1	0
64.5	1.5	successful stop	1	0	0.25	0	0.0	0	1
69.125	1.5	go	0	1	0.0	50	0.345	1	0
71.5	1.5	go	0	1	0.0	50	0.474	1	0
73.75	1.5	go	0	0	0.0	49	0.752	1	0
76.125	1.5	go	0	1	0.0	50	0.793	1	0
78.875	1.5	go	0	1	0.0	50	0.499	1	0
81.0	1.5	successful stop	1	0	0.3	0	0.0	0	1
83.375	1.5	go	0	0	0.0	49	0.46	1	0
86.375	1.5	go	0	0	0.0	49	0.367	1	0
90.5	1.5	failed stop	1	1	0.35	50	0.41	1	0
93.625	1.5	go	0	1	0.0	50	0.413	1	0
95.875	1.5	go	0	0	0.0	49	0.387	1	0
98.0	1.5	go	0	0	0.0	49	0.438	1	0
100.375	1.5	go	0	1	0.0	50	0.399	1	0
103.625	1.5	failed stop	1	1	0.3	50	0.421	1	0
106.625	1.5	go	0	1	0.0	50	0.557	1	0
108.875	1.5	failed stop	1	1	0.3	50	0.421	1	0
111.75	1.5	go	0	0	0.0	49	0.392	1	0
114.0	1.5	go	0	0	0.0	49	0.454	1	0
116.125	1.5	go	0	0	0.0	49	0.497	1	0
121.125	1.5	go	0	0	0.0	49	0.521	1	0
123.125	1.5	go	0	1	0.0	50	0.497	1	0
125.125	1.5	successful stop	1	1	0.25	0	0.0	0	1
127.125	1.5	go	0	1	0.0	50	0.414	1	0
129.125	1.5	go	0	1	0.0	50	0.449	1	0
132.125	1.5	go	0	0	0.0	49	0.633	1	0
135.5	1.5	failed stop	1	0	0.3	49	0.514	1	0
138.25	1.5	successful stop	1	0	0.25	0	0.0	0	1
141.75	1.5	junk	0	1	0.0	49	0.384	0	0
143.875	1.5	go	0	1	0.0	50	0.603	1	0
146.5	1.5	go	0	0	0.0	49	0.482	1	0
150.625	1.5	go	0	1	0.0	50	0.405	1	0
152.75	1.5	go	0	1	0.0	50	0.392	1	0
155.875	1.5	go	0	0	0.0	49	0.483	1	0
159.125	1.5	successful stop	1	0	0.25	0	0.0	0	1
163.0	1.5	failed stop	1	0	0.3	49	0.462	1	0
165.5	1.5	go	0	0	0.0	49	0.458	1	0
168.0	1.5	go	0	1	0.0	50	0.478	1	0
170.75	1.5	go	0	1	0.0	50	0.546	1	0
174.25	1.5	go	0	0	0.0	49	0.849	1	0
179.25	1.5	go	0	0	0.0	49	0.548	1	0
181.375	1.5	go	0	1	0.0	50	0.479	1	0
183.625	1.5	successful stop	1	1	0.3	0	0.0	0	1
185.75	1.5	go	0	0	0.0	49	0.464	1	0
187.75	1.5	go	0	1	0.0	50	0.504	1	0
190.625	1.5	go	0	0	0.0	49	0.501	1	0
192.625	1.5	failed stop	1	1	0.3	50	0.517	1	0
195.5	1.5	go	0	0	0.0	49	0.386	1	0
198.875	1.5	go	0	1	0.0	50	0.394	1	0
201.125	1.5	successful stop	1	1	0.25	0	0.0	0	1
204.125	1.5	go	0	0	0.0	49	0.529	1	0
206.25	1.5	junk	0	0	0.0	0	0.0	0	0
208.5	1.5	go	0	0	0.0	49	0.426	1	0
210.75	1.5	go	0	1	0.0	50	0.4	1	0
213.25	1.5	successful stop	1	1	0.25	0	0.0	0	1
216.5	1.5	go	0	1	0.0	50	0.463	1	0
221.5	1.5	go	0	1	0.0	50	0.641	1	0
225.25	1.5	failed stop	1	0	0.25	49	0.388	1	0
228.0	1.5	go	0	0	0.0	49	0.414	1	0
231.25	1.5	go	0	0	0.0	49	0.451	1	0
234.875	1.5	go	0	1	0.0	50	0.418	1	0
239.875	1.5	successful stop	1	0	0.3	0	0.0	0	1
245.125	1.5	go	0	1	0.0	50	0.361	1	0
247.875	1.5	go	0	1	0.0	50	0.587	1	0
250.25	1.5	junk	0	0	0.0	0	0.0	0	0
252.875	1.5	go	0	1	0.0	50	0.531	1	0
256.25	1.5	failed stop	1	0	0.3	49	0.436	1	0
258.25	1.5	failed stop	1	0	0.35	49	0.532	1	0
262.0	1.5	go	0	0	0.0	49	0.43	1	0
265.5	1.5	go	0	1	0.0	50	0.41	1	0
268.75	1.5	go	0	1	0.0	50	0.48	1	0
270.875	1.5	go	0	1	0.0	50	0.499	1	0
272.875	1.5	go	0	0	0.0	49	0.644	1	0
275.625	1.5	go	0	0	0.0	49	0.501	1	0
278.75	1.5	successful stop	1	1	0.25	0	0.0	0	1
281.625	1.5	successful stop	1	1	0.2	0	0.0	0	1
286.625	1.5	go	0	0	0.0	49	0.461	1	0
288.875	1.5	junk	0	1	0.0	0	0.0	0	0
291.125	1.5	go	0	0	0.0	49	0.312	1	0
293.125	1.5	go	0	0	0.0	49	0.312	1	0
296.625	1.5	go	0	0	0.0	49	0.38	1	0
299.0	1.5	failed stop	1	1	0.3	50	0.47	1	0
302.625	1.5	go	0	1	0.0	50	0.476	1	0
305.0	1.5	go	0	0	0.0	49	0.414	1	0
309.625	1.5	go	0	0	0.0	49	0.42	1	0
311.875	1.5	failed stop	1	1	0.35	50	0.395	1	0
314.5	1.5	go	0	1	0.0	50	0.393	1	0
317.375	1.5	go	0	1	0.0	50	0.396	1	0
319.375	1.5	go	0	0	0.0	49	0.415	1	0
321.75	1.5	go	0	1	0.0	50	0.36	1	0
323.75	1.5	successful stop	1	0	0.25	0	0.0	0	1
326.5	1.5	go	0	0	0.0	49	0.418	1	0
328.5	1.5	go	0	1	0.0	50	0.434	1	0
332.125	1.5	failed stop	1	0	0.3	49	0.465	1	0
334.375	1.5	go	0	1	0.0	50	0.407	1	0
336.5	1.5	go	0	1	0.0	50	0.433	1	0
340.0	1.5	successful stop	1	0	0.25	0	0.0	0	1
342.0	1.5	go	0	0	0.0	49	0.414	1	0
344.375	1.5	go	0	1	0.0	50	0.463	1	0
347.0	1.5	go	0	0	0.0	49	0.51	1	0
349.625	1.5	go	0	1	0.0	50	0.645	1	0
354.375	1.5	successful stop	1	0	0.3	0	0.0	0	1
358.875	1.5	go	0	1	0.0	50	0.491	1	0
