onset	duration	trial_number	event_type	executed_movement	correct_movement	shown_stimulus	reported_gs	correct_gs	included_trial	reason_for_exclusion
13	22	1	stimulus	n/a	n/a	white X	n/a	n/a	0	test trial
35	10.6936536000576	1	stimulus	n/a	n/a	OQCQQGGG	3	3	0	test trial
35.6507915999973	0	1	finger press	4	4	n/a	n/a	n/a	0	test trial
36.2989108000183	0	1	finger press	3	3	n/a	n/a	n/a	0	test trial
37.0348992999643	0	1	finger press	4	4	n/a	n/a	n/a	0	test trial
37.6908756999765	0	1	finger press	1	1	n/a	n/a	n/a	0	test trial
38.3710324000567	0	1	finger press	4	4	n/a	n/a	n/a	0	test trial
39.0668873999966	0	1	finger press	1	1	n/a	n/a	n/a	0	test trial
39.6907655000687	0	1	finger press	2	2	n/a	n/a	n/a	0	test trial
40.4114745999686	0	1	finger press	4	4	n/a	n/a	n/a	0	test trial
41.0269749000436	0	1	finger press	3	3	n/a	n/a	n/a	0	test trial
41.7150769999716	0	1	finger press	2	2	n/a	n/a	n/a	0	test trial
42.4348280000268	0	1	finger press	1	1	n/a	n/a	n/a	0	test trial
43.0508541000308	0	1	finger press	2	2	n/a	n/a	n/a	0	test trial
45.6999999999534	5	1	stimulus	n/a	n/a	white X	n/a	n/a	0	test trial
55.8399999999674	23.02	2	stimulus	n/a	n/a	white X	n/a	n/a	1	n/a
78.8455207999796	8.29001340002287	2	stimulus	n/a	n/a	GQQOOOCG	2	2	1	n/a
79.2745147000533	0	2	finger press	4	4	n/a	n/a	n/a	1	n/a
79.8829333999893	0	2	finger press	3	3	n/a	n/a	n/a	1	n/a
80.5625322000124	0	2	finger press	4	4	n/a	n/a	n/a	1	n/a
81.2190515999682	0	2	finger press	1	1	n/a	n/a	n/a	1	n/a
81.8748944000108	0	2	finger press	4	4	n/a	n/a	n/a	1	n/a
82.5386032999959	0	2	finger press	1	1	n/a	n/a	n/a	1	n/a
83.1633626000257	0	2	finger press	2	2	n/a	n/a	n/a	1	n/a
83.8829989000224	0	2	finger press	4	4	n/a	n/a	n/a	1	n/a
84.5468733999878	0	2	finger press	3	3	n/a	n/a	n/a	1	n/a
85.2669264000142	0	2	finger press	2	2	n/a	n/a	n/a	1	n/a
85.9792342999717	0	2	finger press	1	1	n/a	n/a	n/a	1	n/a
86.6110690999776	0	2	finger press	2	2	n/a	n/a	n/a	1	n/a
87.140000000014	5	2	stimulus	n/a	n/a	white X	n/a	n/a	1	n/a
97.0600000000559	23.02	3	stimulus	n/a	n/a	white X	n/a	n/a	1	n/a
120.076112600043	8.77648420003243	3	stimulus	n/a	n/a	QGCQQGCG	3	3	1	n/a
120.466814600048	0	3	finger press	4	4	n/a	n/a	n/a	1	n/a
121.114757500007	0	3	finger press	3	3	n/a	n/a	n/a	1	n/a
121.810760300024	0	3	finger press	4	4	n/a	n/a	n/a	1	n/a
122.434911999968	0	3	finger press	1	1	n/a	n/a	n/a	1	n/a
123.090977000073	0	3	finger press	4	4	n/a	n/a	n/a	1	n/a
123.738872900023	0	3	finger press	1	1	n/a	n/a	n/a	1	n/a
124.38667440007	0	3	finger press	2	2	n/a	n/a	n/a	1	n/a
125.154949399992	0	3	finger press	4	4	n/a	n/a	n/a	1	n/a
125.843174700043	0	3	finger press	3	3	n/a	n/a	n/a	1	n/a
126.474769399967	0	3	finger press	2	2	n/a	n/a	n/a	1	n/a
127.162929699989	0	3	finger press	1	1	n/a	n/a	n/a	1	n/a
127.827159699984	0	3	finger press	2	2	n/a	n/a	n/a	1	n/a
128.859999999986	5	3	stimulus	n/a	n/a	white X	n/a	n/a	1	n/a
139.819999999949	23.02	4	stimulus	n/a	n/a	white X	n/a	n/a	1	n/a
162.827328799991	9.67811350000557	4	stimulus	n/a	n/a	GOCGQCQO	2	2	1	n/a
163.218945499975	0	4	finger press	4	4	n/a	n/a	n/a	1	n/a
163.842899700045	0	4	finger press	3	3	n/a	n/a	n/a	1	n/a
164.562919700053	0	4	finger press	4	4	n/a	n/a	n/a	1	n/a
165.202915100032	0	4	finger press	1	1	n/a	n/a	n/a	1	n/a
165.890834299964	0	4	finger press	4	4	n/a	n/a	n/a	1	n/a
166.626812800067	0	4	finger press	1	1	n/a	n/a	n/a	1	n/a
167.322824800038	0	4	finger press	2	2	n/a	n/a	n/a	1	n/a
168.162717900006	0	4	finger press	4	4	n/a	n/a	n/a	1	n/a
168.834911299986	0	4	finger press	3	3	n/a	n/a	n/a	1	n/a
169.506822200026	0	4	finger press	2	2	n/a	n/a	n/a	1	n/a
170.259212100063	0	4	finger press	1	1	n/a	n/a	n/a	1	n/a
170.938535999972	0	4	finger press	2	2	n/a	n/a	n/a	1	n/a
172.5	5	4	stimulus	n/a	n/a	white X	n/a	n/a	1	n/a
183.280000000028	24.02	5	stimulus	n/a	n/a	white X	n/a	n/a	1	n/a
207.297101399978	8.64827630005311	5	stimulus	n/a	n/a	OOGGQCQQ	2	2	1	n/a
208.123116799979	0	5	finger press	4	4	n/a	n/a	n/a	1	n/a
208.786788800033	0	5	finger press	3	3	n/a	n/a	n/a	1	n/a
209.466802900075	0	5	finger press	4	4	n/a	n/a	n/a	1	n/a
210.083701299969	0	5	finger press	1	1	n/a	n/a	n/a	1	n/a
210.786828499986	0	5	finger press	4	4	n/a	n/a	n/a	1	n/a
211.475534599973	0	5	finger press	1	1	n/a	n/a	n/a	1	n/a
212.106879299972	0	5	finger press	2	2	n/a	n/a	n/a	1	n/a
212.786602700013	0	5	finger press	4	4	n/a	n/a	n/a	1	n/a
213.442837500013	0	5	finger press	3	3	n/a	n/a	n/a	1	n/a
215.010746999993	0	5	finger press	1	2	n/a	n/a	n/a	1	n/a
215.706890600035	0	5	finger press	2	1	n/a	n/a	n/a	1	n/a
215.939999999944	5	5	stimulus	n/a	n/a	white X	n/a	n/a	1	n/a
232.619999999995	21	6	stimulus	n/a	n/a	white X	n/a	n/a	1	n/a
253.626107700053	11.1661902000196	6	stimulus	n/a	n/a	GQOQQGOC	2	2	1	n/a
254.242688799975	0	6	finger press	4	4	n/a	n/a	n/a	1	n/a
254.939039899968	0	6	finger press	3	3	n/a	n/a	n/a	1	n/a
255.634664200014	0	6	finger press	4	4	n/a	n/a	n/a	1	n/a
256.251401100075	0	6	finger press	1	1	n/a	n/a	n/a	1	n/a
256.874780000071	0	6	finger press	4	4	n/a	n/a	n/a	1	n/a
257.522732199985	0	6	finger press	1	1	n/a	n/a	n/a	1	n/a
258.170777100022	0	6	finger press	2	2	n/a	n/a	n/a	1	n/a
258.882715599961	0	6	finger press	4	4	n/a	n/a	n/a	1	n/a
259.474776600022	0	6	finger press	3	3	n/a	n/a	n/a	1	n/a
260.106605999987	0	6	finger press	2	2	n/a	n/a	n/a	1	n/a
260.770863200072	0	6	finger press	1	1	n/a	n/a	n/a	1	n/a
261.370809399989	0	6	finger press	2	2	n/a	n/a	n/a	1	n/a
264.800000000047	5	6	stimulus	n/a	n/a	white X	n/a	n/a	1	n/a
273.020000000019	24.02	7	stimulus	n/a	n/a	white X	n/a	n/a	1	n/a
297.04432570003	8.10601059999317	7	stimulus	n/a	n/a	OCCQCGCQ	1	1	1	n/a
297.51476010005	0	7	finger press	4	4	n/a	n/a	n/a	1	n/a
298.164149299962	0	7	finger press	3	3	n/a	n/a	n/a	1	n/a
298.802784400061	0	7	finger press	4	4	n/a	n/a	n/a	1	n/a
299.466816700064	0	7	finger press	1	1	n/a	n/a	n/a	1	n/a
300.155519000022	0	7	finger press	4	4	n/a	n/a	n/a	1	n/a
300.914756900049	0	7	finger press	1	1	n/a	n/a	n/a	1	n/a
301.523375999997	0	7	finger press	2	2	n/a	n/a	n/a	1	n/a
302.259450500016	0	7	finger press	4	4	n/a	n/a	n/a	1	n/a
302.962918700068	0	7	finger press	3	3	n/a	n/a	n/a	1	n/a
303.674761399976	0	7	finger press	2	2	n/a	n/a	n/a	1	n/a
304.378528199974	0	7	finger press	1	1	n/a	n/a	n/a	1	n/a
305.140000000014	5	7	stimulus	n/a	n/a	white X	n/a	n/a	1	n/a
313.619999999995	25	8	stimulus	n/a	n/a	white X	n/a	n/a	1	n/a
338.626140300068	8.96993039990775	8	stimulus	n/a	n/a	QQOCOOQO	0	0	1	n/a
338.96265250002	0	8	finger press	4	4	n/a	n/a	n/a	1	n/a
339.619079499971	0	8	finger press	3	3	n/a	n/a	n/a	1	n/a
340.346409899998	0	8	finger press	4	4	n/a	n/a	n/a	1	n/a
341.010534200002	0	8	finger press	1	1	n/a	n/a	n/a	1	n/a
341.746838700026	0	8	finger press	4	4	n/a	n/a	n/a	1	n/a
342.419350899989	0	8	finger press	1	1	n/a	n/a	n/a	1	n/a
343.171430699993	0	8	finger press	2	2	n/a	n/a	n/a	1	n/a
343.874364000047	0	8	finger press	4	4	n/a	n/a	n/a	1	n/a
344.674706600024	0	8	finger press	3	3	n/a	n/a	n/a	1	n/a
345.26662790007	0	8	finger press	2	2	n/a	n/a	n/a	1	n/a
345.9548068	0	8	finger press	1	1	n/a	n/a	n/a	1	n/a
346.546778299962	0	8	finger press	2	2	n/a	n/a	n/a	1	n/a
347.599999999977	5	8	stimulus	n/a	n/a	white X	n/a	n/a	1	n/a
356.140000000014	23	9	stimulus	n/a	n/a	white X	n/a	n/a	1	n/a
379.149359800038	8.32768729992677	9	stimulus	n/a	n/a	QCGOGOOG	3	3	1	n/a
380.042663700064	0	9	finger press	4	4	n/a	n/a	n/a	1	n/a
380.698446599999	0	9	finger press	3	3	n/a	n/a	n/a	1	n/a
381.37894970004	0	9	finger press	4	4	n/a	n/a	n/a	1	n/a
382.058741100016	0	9	finger press	1	1	n/a	n/a	n/a	1	n/a
382.746696599992	0	9	finger press	4	4	n/a	n/a	n/a	1	n/a
383.402688100003	0	9	finger press	1	1	n/a	n/a	n/a	1	n/a
383.99460970005	0	9	finger press	2	2	n/a	n/a	n/a	1	n/a
384.746679399977	0	9	finger press	3	4	n/a	n/a	n/a	1	n/a
384.754807100049	0	9	finger press	4	3	n/a	n/a	n/a	1	n/a
385.546808899962	0	9	finger press	3	2	n/a	n/a	n/a	1	n/a
386.274663700024	0	9	finger press	2	1	n/a	n/a	n/a	1	n/a
386.906453600037	0	9	finger press	1	2	n/a	n/a	n/a	1	n/a
387.479999999981	5	9	stimulus	n/a	n/a	white X	n/a	n/a	1	n/a
397.199999999953	23.02	10	stimulus	n/a	n/a	white X	n/a	n/a	1	n/a
420.214996600058	10.3788320999593	10	stimulus	n/a	n/a	QQCOGGOQ	2	2	1	n/a
420.914899199968	0	10	finger press	4	4	n/a	n/a	n/a	1	n/a
421.554749000003	0	10	finger press	3	3	n/a	n/a	n/a	1	n/a
422.2747982	0	10	finger press	4	4	n/a	n/a	n/a	1	n/a
422.899159600027	0	10	finger press	1	1	n/a	n/a	n/a	1	n/a
423.546607300057	0	10	finger press	4	4	n/a	n/a	n/a	1	n/a
424.179037700058	0	10	finger press	1	1	n/a	n/a	n/a	1	n/a
424.810780100059	0	10	finger press	2	2	n/a	n/a	n/a	1	n/a
425.522846800042	0	10	finger press	4	4	n/a	n/a	n/a	1	n/a
426.282705300022	0	10	finger press	3	3	n/a	n/a	n/a	1	n/a
426.93122290005	0	10	finger press	2	2	n/a	n/a	n/a	1	n/a
427.690695800004	0	10	finger press	1	1	n/a	n/a	n/a	1	n/a
428.323283900041	0	10	finger press	2	2	n/a	n/a	n/a	1	n/a
430.599999999977	5	10	stimulus	n/a	n/a	white X	n/a	n/a	1	n/a
438.520000000019	22.02	11	stimulus	n/a	n/a	white X	n/a	n/a	1	n/a
460.536037800019	9.74164130003192	11	stimulus	n/a	n/a	CQCCOQOC	0	0	1	n/a
461.418448399985	0	11	finger press	4	4	n/a	n/a	n/a	1	n/a
462.050566200051	0	11	finger press	3	3	n/a	n/a	n/a	1	n/a
462.75475610001	0	11	finger press	4	4	n/a	n/a	n/a	1	n/a
463.442838600022	0	11	finger press	1	1	n/a	n/a	n/a	1	n/a
464.154986200039	0	11	finger press	4	4	n/a	n/a	n/a	1	n/a
464.850674999994	0	11	finger press	1	1	n/a	n/a	n/a	1	n/a
465.458687799983	0	11	finger press	2	2	n/a	n/a	n/a	1	n/a
466.18660190003	0	11	finger press	4	4	n/a	n/a	n/a	1	n/a
466.890658900025	0	11	finger press	3	3	n/a	n/a	n/a	1	n/a
467.546637300053	0	11	finger press	2	2	n/a	n/a	n/a	1	n/a
468.203175600036	0	11	finger press	1	1	n/a	n/a	n/a	1	n/a
468.850920299999	0	11	finger press	2	2	n/a	n/a	n/a	1	n/a
470.280000000028	5	11	stimulus	n/a	n/a	white X	n/a	n/a	1	n/a
