onset	duration	trial_number	event_type	executed_movement	correct_movement	shown_stimulus	included_trial	reason_for_exclusion
9.97999999998137	25.02	1	stimulus	n/a	n/a	white X	0	test trial
35	9.5037892999826	1	stimulus	n/a	n/a	red X	0	test trial
35.5028298000107	0	1	finger press	4	4	n/a	0	test trial
36.1542407999514	0	1	finger press	3	3	n/a	0	test trial
36.8081768000266	0	1	finger press	4	4	n/a	0	test trial
37.434161299956	0	1	finger press	1	1	n/a	0	test trial
38.1040222999873	0	1	finger press	4	4	n/a	0	test trial
38.7530630999245	0	1	finger press	1	1	n/a	0	test trial
39.3928212999599	0	1	finger press	2	2	n/a	0	test trial
40.045177699998	0	1	finger press	4	4	n/a	0	test trial
40.7899943999946	0	1	finger press	3	3	n/a	0	test trial
41.4219643999822	0	1	finger press	2	2	n/a	0	test trial
42.0411355999531	0	1	finger press	1	1	n/a	0	test trial
42.7200903999619	0	1	finger press	2	2	n/a	0	test trial
44.5	5	1	stimulus	n/a	n/a	white X	0	test trial
50.4599999999627	24.02	2	stimulus	n/a	n/a	white X	1	n/a
74.4752408999484	9.50329270004295	2	stimulus	n/a	n/a	red X	1	n/a
75.2581972000189	0	2	finger press	4	4	n/a	1	n/a
75.8869220999768	0	2	finger press	3	3	n/a	1	n/a
76.6166628999636	0	2	finger press	4	4	n/a	1	n/a
77.3327919000294	0	2	finger press	1	1	n/a	1	n/a
78.062179200002	0	2	finger press	4	4	n/a	1	n/a
78.8148083999986	0	2	finger press	1	1	n/a	1	n/a
79.4446576000191	0	2	finger press	2	2	n/a	1	n/a
80.1969748999691	0	2	finger press	4	4	n/a	1	n/a
80.9099500000011	0	2	finger press	3	3	n/a	1	n/a
81.5724838000024	0	2	finger press	2	2	n/a	1	n/a
82.2767315999372	0	2	finger press	1	1	n/a	1	n/a
82.9909085999243	0	2	finger press	2	2	n/a	1	n/a
83.9799999999814	5	2	stimulus	n/a	n/a	white X	1	n/a
89.8000000000466	22.02	3	stimulus	n/a	n/a	white X	1	n/a
111.813813799992	35.7122329999693	3	stimulus	n/a	n/a	red X	1	n/a
112.367079099989	0	3	finger press	4	4	n/a	1	n/a
112.98208039999	0	3	finger press	3	3	n/a	1	n/a
113.6544154	0	3	finger press	4	4	n/a	1	n/a
114.336847899947	0	3	finger press	1	1	n/a	1	n/a
114.999941000016	0	3	finger press	4	4	n/a	1	n/a
115.679405299947	0	3	finger press	1	1	n/a	1	n/a
116.328106199973	0	3	finger press	2	2	n/a	1	n/a
117.021717399941	0	3	finger press	4	4	n/a	1	n/a
117.656314100022	0	3	finger press	3	3	n/a	1	n/a
118.304012699984	0	3	finger press	2	2	n/a	1	n/a
118.971142099937	0	3	finger press	1	1	n/a	1	n/a
147.520000000019	5	3	stimulus	n/a	n/a	white X	1	n/a
147.521012799931	0	3	finger press	1	2	n/a	1	n/a
156.219999999972	23.02	4	stimulus	n/a	n/a	white X	1	n/a
179.236925499979	9.50378579995595	4	stimulus	n/a	n/a	red X	1	n/a
179.791611599969	0	4	finger press	4	4	n/a	1	n/a
180.412961800001	0	4	finger press	3	3	n/a	1	n/a
181.176470399951	0	4	finger press	4	4	n/a	1	n/a
181.839096799958	0	4	finger press	1	1	n/a	1	n/a
182.552555599948	0	4	finger press	4	4	n/a	1	n/a
183.269837999949	0	4	finger press	1	1	n/a	1	n/a
183.929294399917	0	4	finger press	2	2	n/a	1	n/a
184.649045699975	0	4	finger press	4	4	n/a	1	n/a
185.341659500031	0	4	finger press	3	3	n/a	1	n/a
186.061930499971	0	4	finger press	2	2	n/a	1	n/a
186.770168700023	0	4	finger press	1	1	n/a	1	n/a
187.39085909992	0	4	finger press	2	2	n/a	1	n/a
188.739999999991	5	4	stimulus	n/a	n/a	white X	1	n/a
194.599999999977	21.02	5	stimulus	n/a	n/a	white X	1	n/a
215.619213799946	9.50463420001324	5	stimulus	n/a	n/a	red X	1	n/a
216.030875399942	0	5	finger press	4	4	n/a	1	n/a
216.726372199948	0	5	finger press	3	3	n/a	1	n/a
217.438886799966	0	5	finger press	4	4	n/a	1	n/a
218.095812099986	0	5	finger press	1	1	n/a	1	n/a
218.758857199922	0	5	finger press	4	4	n/a	1	n/a
219.496903399937	0	5	finger press	1	1	n/a	1	n/a
220.148756699986	0	5	finger press	2	2	n/a	1	n/a
220.920107399928	0	5	finger press	4	4	n/a	1	n/a
221.598587699933	0	5	finger press	3	3	n/a	1	n/a
222.273135800031	0	5	finger press	2	2	n/a	1	n/a
222.983562699985	0	5	finger press	1	1	n/a	1	n/a
223.646746799932	0	5	finger press	2	2	n/a	1	n/a
225.119999999995	5	5	stimulus	n/a	n/a	white X	1	n/a
231.180000000051	25.02	6	stimulus	n/a	n/a	white X	1	n/a
256.198601500015	9.50366869999561	6	stimulus	n/a	n/a	red X	1	n/a
257.021816199995	0	6	finger press	4	4	n/a	1	n/a
257.742144800024	0	6	finger press	3	3	n/a	1	n/a
258.526045199949	0	6	finger press	4	4	n/a	1	n/a
259.151393599925	0	6	finger press	1	1	n/a	1	n/a
259.846826100023	0	6	finger press	4	4	n/a	1	n/a
260.713390399935	0	6	finger press	1	1	n/a	1	n/a
261.382907700026	0	6	finger press	2	2	n/a	1	n/a
262.132903499994	0	6	finger press	4	4	n/a	1	n/a
262.792006099946	0	6	finger press	3	3	n/a	1	n/a
263.448411099962	0	6	finger press	2	2	n/a	1	n/a
264.116867500008	0	6	finger press	1	1	n/a	1	n/a
264.757165399962	0	6	finger press	2	2	n/a	1	n/a
265.699999999953	5	6	stimulus	n/a	n/a	white X	1	n/a
275.219999999972	25.02	7	stimulus	n/a	n/a	white X	1	n/a
300.239899799926	14.7403128000442	7	stimulus	n/a	n/a	red X	1	n/a
301.369155999972	0	7	finger press	4	4	n/a	1	n/a
302.015977100004	0	7	finger press	3	3	n/a	1	n/a
302.75226139999	0	7	finger press	4	4	n/a	1	n/a
303.415668800008	0	7	finger press	1	1	n/a	1	n/a
304.070791499922	0	7	finger press	4	4	n/a	1	n/a
304.74595120002	0	7	finger press	1	1	n/a	1	n/a
305.390987499966	0	7	finger press	2	2	n/a	1	n/a
306.089039099985	0	7	finger press	4	4	n/a	1	n/a
306.734786599991	0	7	finger press	3	3	n/a	1	n/a
307.393392700003	0	7	finger press	2	2	n/a	1	n/a
308.085233499995	0	7	finger press	1	1	n/a	1	n/a
314.975968200015	0	7	finger press	1	2	n/a	1	n/a
314.979999999981	5	7	stimulus	n/a	n/a	white X	1	n/a
323.280000000028	25.02	8	stimulus	n/a	n/a	white X	1	n/a
348.294253699947	9.50336199998856	8	stimulus	n/a	n/a	red X	1	n/a
349.407560999971	0	8	finger press	4	4	n/a	1	n/a
350.13723969995	0	8	finger press	3	3	n/a	1	n/a
350.878869900014	0	8	finger press	4	4	n/a	1	n/a
351.557185199927	0	8	finger press	1	1	n/a	1	n/a
352.330043599941	0	8	finger press	4	4	n/a	1	n/a
353.090352399973	0	8	finger press	1	1	n/a	1	n/a
353.816764899995	0	8	finger press	2	2	n/a	1	n/a
354.629806999932	0	8	finger press	4	4	n/a	1	n/a
355.309846399934	0	8	finger press	3	3	n/a	1	n/a
356.05261959997	0	8	finger press	2	2	n/a	1	n/a
356.782002200023	0	8	finger press	1	1	n/a	1	n/a
357.535538499942	0	8	finger press	2	2	n/a	1	n/a
357.800000000047	5	8	stimulus	n/a	n/a	white X	1	n/a
364.300000000047	22.02	9	stimulus	n/a	n/a	white X	1	n/a
386.310088200029	9.50355689995922	9	stimulus	n/a	n/a	red X	1	n/a
387.081752699916	0	9	finger press	4	4	n/a	1	n/a
387.829912099987	0	9	finger press	3	3	n/a	1	n/a
388.61403669999	0	9	finger press	4	4	n/a	1	n/a
389.3269937	0	9	finger press	1	1	n/a	1	n/a
390.054728399962	0	9	finger press	4	4	n/a	1	n/a
390.80669290002	0	9	finger press	1	1	n/a	1	n/a
391.536247699987	0	9	finger press	2	2	n/a	1	n/a
392.327135899919	0	9	finger press	4	4	n/a	1	n/a
393.029339100001	0	9	finger press	3	3	n/a	1	n/a
393.707764299936	0	9	finger press	2	2	n/a	1	n/a
394.502323499997	0	9	finger press	1	1	n/a	1	n/a
395.184179299977	0	9	finger press	2	2	n/a	1	n/a
395.819999999949	5	9	stimulus	n/a	n/a	white X	1	n/a
401.719999999972	23.02	10	stimulus	n/a	n/a	white X	1	n/a
424.739207400009	9.50418509996962	10	stimulus	n/a	n/a	red X	1	n/a
425.478592699976	0	10	finger press	4	4	n/a	1	n/a
426.145506100031	0	10	finger press	3	3	n/a	1	n/a
426.886775500025	0	10	finger press	4	4	n/a	1	n/a
427.591721099918	0	10	finger press	1	1	n/a	1	n/a
428.313155699987	0	10	finger press	4	4	n/a	1	n/a
429.029671899974	0	10	finger press	1	1	n/a	1	n/a
429.711573399953	0	10	finger press	2	2	n/a	1	n/a
430.457962199929	0	10	finger press	4	4	n/a	1	n/a
431.182831899961	0	10	finger press	3	3	n/a	1	n/a
431.927974299993	0	10	finger press	2	2	n/a	1	n/a
432.624525499996	0	10	finger press	1	1	n/a	1	n/a
433.271743300022	0	10	finger press	2	2	n/a	1	n/a
434.239999999991	5	10	stimulus	n/a	n/a	white X	1	n/a
440.319999999949	21.02	11	stimulus	n/a	n/a	white X	1	n/a
461.338979599997	12.6581362999277	11	stimulus	n/a	n/a	red X	1	n/a
461.959031099919	0	11	finger press	4	4	n/a	1	n/a
462.724647199968	0	11	finger press	3	3	n/a	1	n/a
463.398523599957	0	11	finger press	4	4	n/a	1	n/a
464.052798499935	0	11	finger press	1	1	n/a	1	n/a
464.72459899995	0	11	finger press	4	4	n/a	1	n/a
465.38076650002	0	11	finger press	1	1	n/a	1	n/a
466.052774399985	0	11	finger press	2	2	n/a	1	n/a
466.733601699932	0	11	finger press	4	4	n/a	1	n/a
467.438741800026	0	11	finger press	3	3	n/a	1	n/a
468.136292599957	0	11	finger press	2	2	n/a	1	n/a
468.800472699921	0	11	finger press	1	1	n/a	1	n/a
473.992958399933	0	11	finger press	2	2	n/a	1	n/a
474	5	11	stimulus	n/a	n/a	white X	1	n/a
