onset	duration	trial_type	TrialType	Stimulus	SSD	Response	response_time	CorrectGo	SuccStop
0.000	n/a	n/a	0	1	0.000	50	0.369	1	0
2.000	1.500	go	0	1	0.000	50	0.364	1	0
4.250	1.500	go	0	0	0.000	49	0.275	1	0
8.625	1.500	failed stop	1	0	0.200	49	0.322	1	0
12.375	1.500	go	0	0	0.000	49	0.301	1	0
15.250	1.500	go	0	1	0.000	50	0.305	1	0
18.250	1.500	failed stop	1	0	0.150	49	0.250	1	0
21.250	1.500	go	0	1	0.000	50	0.297	1	0
23.375	1.500	go	0	1	0.000	50	0.317	1	0
26.375	1.500	junk	0	1	0.000	49	0.292	0	0
28.625	1.500	go	0	0	0.000	49	0.307	1	0
31.250	1.500	failed stop	1	0	0.200	49	0.345	1	0
34.875	1.500	successful stop	1	0	0.150	0	0.000	0	1
38.125	1.500	go	0	0	0.000	49	0.302	1	0
40.250	1.500	go	0	1	0.000	50	0.313	1	0
42.250	1.500	go	0	1	0.000	50	0.353	1	0
45.250	1.500	go	0	0	0.000	49	0.278	1	0
47.500	1.500	go	0	1	0.000	50	0.327	1	0
49.500	1.500	go	0	0	0.000	49	0.247	1	0
52.875	1.500	failed stop	1	1	0.100	50	0.296	1	0
55.750	1.500	go	0	1	0.000	50	0.357	1	0
58.375	1.500	go	0	0	0.000	49	0.300	1	0
62.500	1.500	successful stop	1	1	0.150	0	0.000	0	1
64.875	1.500	go	0	0	0.000	49	0.280	1	0
69.125	1.500	go	0	0	0.000	49	0.319	1	0
71.125	1.500	go	0	0	0.000	49	0.358	1	0
73.250	1.500	go	0	1	0.000	50	0.353	1	0
76.250	1.500	successful stop	1	1	0.150	0	0.000	0	1
80.125	1.500	go	0	1	0.000	50	0.350	1	0
82.500	1.500	failed stop	1	1	0.200	50	0.288	1	0
85.125	1.500	go	0	0	0.000	49	0.374	1	0
87.750	1.500	go	0	0	0.000	49	0.365	1	0
90.250	1.500	go	0	1	0.000	50	0.382	1	0
92.375	1.500	go	0	0	0.000	49	0.356	1	0
94.375	1.500	failed stop	1	0	0.200	49	0.380	1	0
97.625	1.500	go	0	1	0.000	50	0.330	1	0
101.000	1.500	failed stop	1	0	0.200	49	0.267	1	0
105.750	1.500	go	0	1	0.000	50	0.310	1	0
108.875	1.500	go	0	1	0.000	50	0.320	1	0
111.250	1.500	go	0	0	0.000	49	0.290	1	0
114.250	1.500	successful stop	1	0	0.150	0	0.000	0	1
118.000	1.500	go	0	0	0.000	49	0.323	1	0
120.125	1.500	go	0	1	0.000	50	0.350	1	0
122.625	1.500	go	0	1	0.000	50	0.402	1	0
125.250	1.500	go	0	0	0.000	49	0.313	1	0
129.125	1.500	go	0	1	0.000	50	0.343	1	0
131.250	1.500	go	0	1	0.000	50	0.297	1	0
133.375	1.500	successful stop	1	0	0.050	0	0.000	0	1
136.000	1.500	go	0	1	0.000	50	0.329	1	0
139.125	1.500	go	0	1	0.000	50	0.263	1	0
142.000	1.500	failed stop	1	0	0.200	49	0.308	1	0
144.125	1.500	go	0	0	0.000	49	0.335	1	0
146.625	1.500	go	0	0	0.000	49	0.338	1	0
149.250	1.500	successful stop	1	0	0.100	0	0.000	0	1
151.875	1.500	go	0	1	0.000	50	0.336	1	0
154.250	1.500	go	0	1	0.000	50	0.346	1	0
158.375	1.500	failed stop	1	0	0.150	49	0.301	1	0
162.375	1.500	go	0	1	0.000	50	0.309	1	0
166.125	1.500	go	0	1	0.000	50	0.350	1	0
169.000	1.500	go	0	0	0.000	49	0.308	1	0
171.000	1.500	go	0	1	0.000	50	0.308	1	0
173.625	1.500	failed stop	1	0	0.150	49	0.299	1	0
176.500	1.500	go	0	0	0.000	49	0.383	1	0
178.500	1.500	go	0	1	0.000	50	0.311	1	0
180.500	1.500	go	0	0	0.000	49	0.277	1	0
182.750	1.500	go	0	0	0.000	49	0.333	1	0
185.750	1.500	go	0	1	0.000	50	0.373	1	0
189.750	1.500	successful stop	1	1	0.100	0	0.000	0	1
192.250	1.500	failed stop	1	1	0.150	50	0.362	1	0
194.750	1.500	go	0	0	0.000	49	0.390	1	0
197.375	1.500	go	0	0	0.000	49	0.293	1	0
200.250	1.500	go	0	1	0.000	50	0.314	1	0
202.875	1.500	successful stop	1	1	0.100	0	0.000	0	1
206.000	1.500	go	0	0	0.000	49	0.364	1	0
210.625	1.500	go	0	0	0.000	49	0.307	1	0
212.875	1.500	go	0	1	0.000	50	0.329	1	0
215.375	1.500	go	0	0	0.000	49	0.293	1	0
218.250	1.500	failed stop	1	1	0.150	50	0.314	1	0
220.375	1.500	go	0	1	0.000	50	0.309	1	0
222.750	1.500	go	0	0	0.000	49	0.286	1	0
225.625	1.500	failed stop	1	1	0.150	50	0.320	1	0
229.500	1.500	go	0	1	0.000	50	0.312	1	0
233.375	1.500	go	0	0	0.000	49	0.301	1	0
236.000	1.500	go	0	0	0.000	49	0.347	1	0
238.000	1.500	successful stop	1	1	0.100	0	0.000	0	1
242.750	1.500	go	0	0	0.000	49	0.270	1	0
246.125	1.500	go	0	1	0.000	50	0.334	1	0
248.625	1.500	go	0	0	0.000	49	0.331	1	0
250.750	1.500	go	0	0	0.000	49	0.238	1	0
256.000	1.500	successful stop	1	1	0.100	0	0.000	0	1
260.750	1.500	go	0	0	0.000	49	0.309	1	0
262.875	1.500	go	0	1	0.000	50	0.312	1	0
265.000	1.500	go	0	0	0.000	49	0.315	1	0
267.250	1.500	go	0	0	0.000	49	0.346	1	0
270.000	1.500	go	0	1	0.000	50	0.292	1	0
273.250	1.500	successful stop	1	1	0.150	0	0.000	0	1
275.750	1.500	failed stop	1	0	0.150	49	0.307	1	0
278.000	1.500	go	0	1	0.000	50	0.260	1	0
280.250	1.500	go	0	0	0.000	49	0.354	1	0
282.500	1.500	go	0	1	0.000	50	0.272	1	0
284.500	1.500	go	0	0	0.000	49	0.280	1	0
287.000	1.500	successful stop	1	0	0.150	0	0.000	0	1
289.125	1.500	go	0	1	0.000	50	0.366	1	0
291.250	1.500	go	0	1	0.000	50	0.418	1	0
293.375	1.500	go	0	1	0.000	50	0.380	1	0
295.625	1.500	go	0	1	0.000	50	0.330	1	0
297.875	1.500	go	0	0	0.000	49	0.281	1	0
299.875	1.500	successful stop	1	0	0.100	0	0.000	0	1
302.625	1.500	go	0	0	0.000	49	0.274	1	0
307.000	1.500	failed stop	1	0	0.200	49	0.324	1	0
311.625	1.500	go	0	1	0.000	50	0.290	1	0
314.125	1.500	go	0	1	0.000	50	0.326	1	0
316.875	1.500	go	0	0	0.000	49	0.262	1	0
320.000	1.500	junk	0	0	0.000	50	0.219	0	0
322.000	1.500	go	0	1	0.000	50	0.363	1	0
325.750	1.500	failed stop	1	1	0.200	50	0.390	1	0
329.875	1.500	successful stop	1	1	0.150	0	0.000	0	1
332.750	1.500	go	0	1	0.000	50	0.357	1	0
334.750	1.500	go	0	0	0.000	49	0.325	1	0
338.625	1.500	go	0	0	0.000	49	0.290	1	0
342.000	1.500	successful stop	1	1	0.150	0	0.000	0	1
344.875	1.500	go	0	0	0.000	49	0.336	1	0
346.875	1.500	go	0	1	0.000	50	0.384	1	0
350.125	1.500	go	0	0	0.000	49	0.414	1	0
352.125	1.500	successful stop	1	1	0.100	0	0.000	0	1
354.375	1.500	go	0	1	0.000	50	0.340	1	0
357.375	1.500	go	0	0	0.000	49	0.356	1	0
359.375	1.500	go	0	0	0.000	49	0.364	1	0
