onset	duration	trial_type	Object_Cond	Validity_Cond	Obj_Accuracy	Obj_Acc_RT	Subseq_Recog	Subseq_Recog_RT	Subseq_Source_Mem_Acc	Subseq_Source_Mem_Acc_RT
4.001	1.000	Valid Other Obj Cue: valid cue where following stimulus was an untested or no response object	OBJ	V	1	0.63603	UT	UT	UT	UT
10.001	0.500	Valid Other Obj: stimulus that was an untested or no response object and that followed a valid cue	OBJ	V	1	0.63603	UT	UT	UT	UT
12.002	1.000	Valid Miss Cue: valid cue where following object was a subsequent miss	OBJ	V	1	0.52168	HC-MISS	 1.2104	UT	UT
16.002	0.500	Valid Miss Obj: object that was a subsequent miss and that followed a valid cue	OBJ	V	1	0.52168	HC-MISS	 1.2104	UT	UT
18.002	1.000	Valid Other Greeble Cue: valid cue where following stimulus was an untested or no response greeble	GRE	V	1	0.55725	UT	UT	UT	UT
24.002	0.500	Valid Other Greeble: stimulus that was an untested or no response greeble and that followed a valid cue	GRE	V	1	0.55725	UT	UT	UT	UT
28.001	1.000	Invalid Miss Cue: invalid cue where following object was a subsequent miss	OBJ	NV	1	0.74171	HC-MISS	 2.1808	UT	UT
32.001	0.500	Invalid Miss Obj: object that was a subsequent miss and that followed an invalid cue	OBJ	NV	1	0.74171	HC-MISS	 2.1808	UT	UT
36.001	1.000	Valid Other Obj Cue: valid cue where following stimulus was an untested or no response object	OBJ	V	1	0.67562	UT	UT	UT	UT
42.001	0.500	Valid Other Obj: stimulus that was an untested or no response object and that followed a valid cue	OBJ	V	1	0.67562	UT	UT	UT	UT
44.002	1.000	Valid Other Greeble Cue: valid cue where following stimulus was an untested or no response greeble	GRE	V	1	0.63952	UT	UT	UT	UT
46.002	0.500	Valid Other Greeble: stimulus that was an untested or no response greeble and that followed a valid cue	GRE	V	1	0.63952	UT	UT	UT	UT
48.001	1.000	Valid Other Greeble Cue: valid cue where following stimulus was an untested or no response greeble	GRE	V	1	0.64072	UT	UT	UT	UT
52.001	0.500	Valid Other Greeble: stimulus that was an untested or no response greeble and that followed a valid cue	GRE	V	1	0.64072	UT	UT	UT	UT
54.001	1.000	Valid Miss Cue: valid cue where following object was a subsequent miss	OBJ	V	1	 1.0012	LC-MISS	0.71814	UT	UT
60.001	0.500	Valid Miss Obj: object that was a subsequent miss and that followed a valid cue	OBJ	V	1	 1.0012	LC-MISS	0.71814	UT	UT
62.002	1.000	Invalid Miss Cue: invalid cue where following object was a subsequent miss	OBJ	NV	1	0.78846	HC-MISS	 1.1491	UT	UT
64.002	0.500	Invalid Miss Obj: object that was a subsequent miss and that followed an invalid cue	OBJ	NV	1	0.78846	HC-MISS	 1.1491	UT	UT
66.001	1.000	Valid Other Greeble Cue: valid cue where following stimulus was an untested or no response greeble	GRE	V	1	0.56383	UT	UT	UT	UT
72.001	0.500	Valid Other Greeble: stimulus that was an untested or no response greeble and that followed a valid cue	GRE	V	1	0.56383	UT	UT	UT	UT
74.001	1.000	Valid Other Greeble Cue: valid cue where following stimulus was an untested or no response greeble	GRE	V	1	 0.5915	UT	UT	UT	UT
76.001	0.500	Valid Other Greeble: stimulus that was an untested or no response greeble and that followed a valid cue	GRE	V	1	 0.5915	UT	UT	UT	UT
78.002	1.000	Valid HC-Hit Cue: valid cue where following object was a subsequent high confidence hit	OBJ	V	1	0.76869	HC-HIT	 1.1972	0	0.92752
82.002	0.500	Valid HC-Hit Obj: object that was a subsequent high confidence hit and that followed a valid cue	OBJ	V	1	0.76869	HC-HIT	 1.1972	0	0.92752
84.001	1.000	Valid HC-Hit Cue: valid cue where following object was a subsequent high confidence hit	OBJ	V	1	 0.7019	HC-HIT	 1.5604	0	0.61082
86.001	0.500	Valid HC-Hit Obj: object that was a subsequent high confidence hit and that followed a valid cue	OBJ	V	1	 0.7019	HC-HIT	 1.5604	0	0.61082
88.001	1.000	Valid Miss Cue: valid cue where following object was a subsequent miss	OBJ	V	1	0.74427	HC-MISS	 1.3779	UT	UT
90.001	0.500	Valid Miss Obj: object that was a subsequent miss and that followed a valid cue	OBJ	V	1	0.74427	HC-MISS	 1.3779	UT	UT
92.002	1.000	Invalid LC-Hit Cue: invalid cue where following object was a subsequent low confidence hit	OBJ	NV	1	 1.0105	LC-HIT	 2.1586	0	0.86861
96.002	0.500	Invalid LC-Hit Obj: object that was a subsequent low confidence hit and that followed an invalid cue	OBJ	NV	1	 1.0105	LC-HIT	 2.1586	0	0.86861
98.001	1.000	Valid Miss Cue: valid cue where following object was a subsequent miss	OBJ	V	1	0.81061	LC-MISS	 2.2064	UT	UT
104.001	0.500	Valid Miss Obj: object that was a subsequent miss and that followed a valid cue	OBJ	V	1	0.81061	LC-MISS	 2.2064	UT	UT
106.002	1.000	Valid LC-Hit Cue: valid cue where following object was a subsequent low confidence hit	OBJ	V	1	0.87528	LC-HIT	0.91048	0	1.5619
110.002	0.500	Valid LC-Hit Obj: object that was a subsequent low confidence hit and that followed a valid cue	OBJ	V	1	0.87528	LC-HIT	0.91048	0	1.5619
112.001	1.000	Valid Miss Cue: valid cue where following object was a subsequent miss	OBJ	V	1	0.78412	LC-MISS	0.92708	UT	UT
114.001	0.500	Valid Miss Obj: object that was a subsequent miss and that followed a valid cue	OBJ	V	1	0.78412	LC-MISS	0.92708	UT	UT
116.001	1.000	Valid Other Greeble Cue: valid cue where following stimulus was an untested or no response greeble	GRE	V	1	0.67197	UT	UT	UT	UT
122.001	0.500	Valid Other Greeble: stimulus that was an untested or no response greeble and that followed a valid cue	GRE	V	1	0.67197	UT	UT	UT	UT
126.001	1.000	Valid Miss Cue: valid cue where following object was a subsequent miss	OBJ	V	1	0.64448	LC-MISS	0.88163	UT	UT
132.001	0.500	Valid Miss Obj: object that was a subsequent miss and that followed a valid cue	OBJ	V	1	0.64448	LC-MISS	0.88163	UT	UT
134.002	1.000	Valid Other Greeble Cue: valid cue where following stimulus was an untested or no response greeble	GRE	V	1	0.62889	UT	UT	UT	UT
140.002	0.500	Valid Other Greeble: stimulus that was an untested or no response greeble and that followed a valid cue	GRE	V	1	0.62889	UT	UT	UT	UT
142.002	1.000	Valid LC-Hit Cue: valid cue where following object was a subsequent low confidence hit	OBJ	V	1	0.83276	LC-HIT	 2.4197	0	0.70511
144.002	0.500	Valid LC-Hit Obj: object that was a subsequent low confidence hit and that followed a valid cue	OBJ	V	1	0.83276	LC-HIT	 2.4197	0	0.70511
146.001	1.000	Invalid Other Greeble Cue: invalid cue where following stimulus was an untested or no response greeble	GRE	NV	1	0.75599	UT	UT	UT	UT
148.001	0.500	Invalid Other Greeble: stimulus that was an untested or no response greeble and that followed a invalid cue	GRE	NV	1	0.75599	UT	UT	UT	UT
150.002	1.000	Valid Miss Cue: valid cue where following object was a subsequent miss	OBJ	V	1	0.91627	LC-MISS	  1.907	UT	UT
156.002	0.500	Valid Miss Obj: object that was a subsequent miss and that followed a valid cue	OBJ	V	1	0.91627	LC-MISS	  1.907	UT	UT
160.001	1.000	Valid Miss Cue: valid cue where following object was a subsequent miss	OBJ	V	1	0.63374	LC-MISS	 2.0808	UT	UT
166.001	0.500	Valid Miss Obj: object that was a subsequent miss and that followed a valid cue	OBJ	V	1	0.63374	LC-MISS	 2.0808	UT	UT
168.001	1.000	Invalid Miss Cue: invalid cue where following object was a subsequent miss	OBJ	NV	1	0.74082	LC-MISS	0.81731	UT	UT
170.001	0.500	Invalid Miss Obj: object that was a subsequent miss and that followed an invalid cue	OBJ	NV	1	0.74082	LC-MISS	0.81731	UT	UT
174.001	1.000	Valid Other Greeble Cue: valid cue where following stimulus was an untested or no response greeble	GRE	V	1	0.59486	UT	UT	UT	UT
180.001	0.500	Valid Other Greeble: stimulus that was an untested or no response greeble and that followed a valid cue	GRE	V	1	0.59486	UT	UT	UT	UT
182.001	1.000	Valid HC-Hit Cue: valid cue where following object was a subsequent high confidence hit	OBJ	V	1	0.87309	HC-HIT	 2.9894	0	0.79587
188.001	0.500	Valid HC-Hit Obj: object that was a subsequent high confidence hit and that followed a valid cue	OBJ	V	1	0.87309	HC-HIT	 2.9894	0	0.79587
190.001	1.000	Valid Other Obj Cue: valid cue where following stimulus was an untested or no response object	OBJ	V	1	0.64215	UT	UT	UT	UT
196.001	0.500	Valid Other Obj: stimulus that was an untested or no response object and that followed a valid cue	OBJ	V	1	0.64215	UT	UT	UT	UT
198.001	1.000	Valid Other Obj Cue: valid cue where following stimulus was an untested or no response object	OBJ	V	1	0.65362	UT	UT	UT	UT
200.001	0.500	Valid Other Obj: stimulus that was an untested or no response object and that followed a valid cue	OBJ	V	1	0.65362	UT	UT	UT	UT
202.001	1.000	Valid Miss Cue: valid cue where following object was a subsequent miss	OBJ	V	1	0.59944	LC-MISS	 2.1492	UT	UT
206.001	0.500	Valid Miss Obj: object that was a subsequent miss and that followed a valid cue	OBJ	V	1	0.59944	LC-MISS	 2.1492	UT	UT
208.001	1.000	Valid LC-Hit Cue: valid cue where following object was a subsequent low confidence hit	OBJ	V	NR	NR	LC-HIT	 1.7215	1	0.95698
212.001	0.500	Valid LC-Hit Obj: object that was a subsequent low confidence hit and that followed a valid cue	OBJ	V	NR	NR	LC-HIT	 1.7215	1	0.95698
218.002	1.000	Invalid Miss Cue: invalid cue where following object was a subsequent miss	OBJ	NV	1	0.91705	LC-MISS	  1.377	UT	UT
224.002	0.500	Invalid Miss Obj: object that was a subsequent miss and that followed an invalid cue	OBJ	NV	1	0.91705	LC-MISS	  1.377	UT	UT
226.001	1.000	Valid Other Greeble Cue: valid cue where following stimulus was an untested or no response greeble	GRE	V	1	0.62007	UT	UT	UT	UT
232.001	0.500	Valid Other Greeble: stimulus that was an untested or no response greeble and that followed a valid cue	GRE	V	1	0.62007	UT	UT	UT	UT
234.001	1.000	Valid Miss Cue: valid cue where following object was a subsequent miss	OBJ	V	1	0.58299	LC-MISS	0.64736	UT	UT
236.001	0.500	Valid Miss Obj: object that was a subsequent miss and that followed a valid cue	OBJ	V	1	0.58299	LC-MISS	0.64736	UT	UT
238.002	1.000	Valid Miss Cue: valid cue where following object was a subsequent miss	OBJ	V	1	0.70528	LC-MISS	 0.7915	UT	UT
242.002	0.500	Valid Miss Obj: object that was a subsequent miss and that followed a valid cue	OBJ	V	1	0.70528	LC-MISS	 0.7915	UT	UT
246.001	1.000	Valid Miss Cue: valid cue where following object was a subsequent miss	OBJ	V	1	0.64319	LC-MISS	 1.5466	UT	UT
248.001	0.500	Valid Miss Obj: object that was a subsequent miss and that followed a valid cue	OBJ	V	1	0.64319	LC-MISS	 1.5466	UT	UT
252.002	1.000	Valid Other Greeble Cue: valid cue where following stimulus was an untested or no response greeble	GRE	V	1	0.62071	UT	UT	UT	UT
254.002	0.500	Valid Other Greeble: stimulus that was an untested or no response greeble and that followed a valid cue	GRE	V	1	0.62071	UT	UT	UT	UT
256.002	1.000	Valid Miss Cue: valid cue where following object was a subsequent miss	OBJ	V	1	 0.7514	LC-MISS	 1.6372	UT	UT
260.002	0.500	Valid Miss Obj: object that was a subsequent miss and that followed a valid cue	OBJ	V	1	 0.7514	LC-MISS	 1.6372	UT	UT
262.001	1.000	Valid LC-Hit Cue: valid cue where following object was a subsequent low confidence hit	OBJ	V	1	0.55924	LC-HIT	 2.4801	1	0.41129
266.001	0.500	Valid LC-Hit Obj: object that was a subsequent low confidence hit and that followed a valid cue	OBJ	V	1	0.55924	LC-HIT	 2.4801	1	0.41129
268.001	1.000	Valid Other Greeble Cue: valid cue where following stimulus was an untested or no response greeble	GRE	V	1	0.60992	UT	UT	UT	UT
272.001	0.500	Valid Other Greeble: stimulus that was an untested or no response greeble and that followed a valid cue	GRE	V	1	0.60992	UT	UT	UT	UT
274.002	1.000	Invalid HC-Hit Cue: invalid cue where following object was a subsequent high confidence hit	OBJ	NV	1	0.69727	HC-HIT	  1.552	1	0.44084
280.002	0.500	Invalid HC-Hit Obj: object that was a subsequent high confidence hit and that followed an invalid cue	OBJ	NV	1	0.69727	HC-HIT	  1.552	1	0.44084
284.005	1.000	Invalid Other Greeble Cue: invalid cue where following stimulus was an untested or no response greeble	GRE	NV	1	0.67543	UT	UT	UT	UT
286.005	0.500	Invalid Other Greeble: stimulus that was an untested or no response greeble and that followed a invalid cue	GRE	NV	1	0.67543	UT	UT	UT	UT
288.002	1.000	Valid Other Greeble Cue: valid cue where following stimulus was an untested or no response greeble	GRE	V	1	0.67014	UT	UT	UT	UT
290.002	0.500	Valid Other Greeble: stimulus that was an untested or no response greeble and that followed a valid cue	GRE	V	1	0.67014	UT	UT	UT	UT
292.002	1.000	Valid Other Obj Cue: valid cue where following stimulus was an untested or no response object	OBJ	V	1	0.75554	NR	NR	UT	UT
294.002	0.500	Valid Other Obj: stimulus that was an untested or no response object and that followed a valid cue	OBJ	V	1	0.75554	NR	NR	UT	UT
296.002	1.000	Valid Miss Cue: valid cue where following object was a subsequent miss	OBJ	V	1	0.66983	HC-MISS	0.81128	UT	UT
298.002	0.500	Valid Miss Obj: object that was a subsequent miss and that followed a valid cue	OBJ	V	1	0.66983	HC-MISS	0.81128	UT	UT
302.001	1.000	Valid LC-Hit Cue: valid cue where following object was a subsequent low confidence hit	OBJ	V	1	0.72535	LC-HIT	 2.9917	1	1.1886
306.001	0.500	Valid LC-Hit Obj: object that was a subsequent low confidence hit and that followed a valid cue	OBJ	V	1	0.72535	LC-HIT	 2.9917	1	1.1886
308.002	1.000	Valid HC-Hit Cue: valid cue where following object was a subsequent high confidence hit	OBJ	V	1	0.54841	HC-HIT	 3.3239	1	1.7079
314.002	0.500	Valid HC-Hit Obj: object that was a subsequent high confidence hit and that followed a valid cue	OBJ	V	1	0.54841	HC-HIT	 3.3239	1	1.7079
316.001	1.000	Invalid Miss Cue: invalid cue where following object was a subsequent miss	OBJ	NV	1	0.58481	LC-MISS	 1.2306	UT	UT
318.001	0.500	Invalid Miss Obj: object that was a subsequent miss and that followed an invalid cue	OBJ	NV	1	0.58481	LC-MISS	 1.2306	UT	UT
324.001	1.000	Valid Miss Cue: valid cue where following object was a subsequent miss	OBJ	V	NR	NR	LC-MISS	 2.2056	UT	UT
328.001	0.500	Valid Miss Obj: object that was a subsequent miss and that followed a valid cue	OBJ	V	NR	NR	LC-MISS	 2.2056	UT	UT
330.001	1.000	Valid Other Obj Cue: valid cue where following stimulus was an untested or no response object	OBJ	V	1	0.52132	UT	UT	UT	UT
334.001	0.500	Valid Other Obj: stimulus that was an untested or no response object and that followed a valid cue	OBJ	V	1	0.52132	UT	UT	UT	UT
336.001	1.000	Valid Other Greeble Cue: valid cue where following stimulus was an untested or no response greeble	GRE	V	1	0.69739	UT	UT	UT	UT
340.001	0.500	Valid Other Greeble: stimulus that was an untested or no response greeble and that followed a valid cue	GRE	V	1	0.69739	UT	UT	UT	UT
342.001	1.000	Invalid Miss Cue: invalid cue where following object was a subsequent miss	OBJ	NV	1	0.73174	LC-MISS	0.73505	UT	UT
346.001	0.500	Invalid Miss Obj: object that was a subsequent miss and that followed an invalid cue	OBJ	NV	1	0.73174	LC-MISS	0.73505	UT	UT
348.001	1.000	Valid Miss Cue: valid cue where following object was a subsequent miss	OBJ	V	1	0.81507	LC-MISS	0.88852	UT	UT
350.001	0.500	Valid Miss Obj: object that was a subsequent miss and that followed a valid cue	OBJ	V	1	0.81507	LC-MISS	0.88852	UT	UT
352.001	1.000	Valid Miss Cue: valid cue where following object was a subsequent miss	OBJ	V	1	0.61809	HC-MISS	0.64815	UT	UT
356.001	0.500	Valid Miss Obj: object that was a subsequent miss and that followed a valid cue	OBJ	V	1	0.61809	HC-MISS	0.64815	UT	UT
360.001	1.000	Valid Other Greeble Cue: valid cue where following stimulus was an untested or no response greeble	GRE	V	1	0.64054	UT	UT	UT	UT
364.001	0.500	Valid Other Greeble: stimulus that was an untested or no response greeble and that followed a valid cue	GRE	V	1	0.64054	UT	UT	UT	UT
