onset	duration	trial_type	Object_Cond	Validity_Cond	Obj_Accuracy	Obj_Acc_RT	Subseq_Recog	Subseq_Recog_RT	Subseq_Source_Mem_Acc	Subseq_Source_Mem_Acc_RT
4.0004	1.0	Valid Other Obj Cue: valid cue where following stimulus was an untested or no response object	OBJ	V	1	0.8096300000000001	UT	UT	UT	UT
10.0004	0.5	Valid Other Obj: stimulus that was an untested or no response object and that followed a valid cue	OBJ	V	1	0.8096300000000001	UT	UT	UT	UT
12.0019	1.0	Valid Miss Cue: valid cue where following object was a subsequent miss	OBJ	V	1	1.3736	LC-MISS	 1.2052	UT	UT
14.0019	0.5	Valid Miss Obj: object that was a subsequent miss and that followed a valid cue	OBJ	V	1	1.3736	LC-MISS	 1.2052	UT	UT
16.0011	1.0	Valid Other Obj Cue: valid cue where following stimulus was an untested or no response object	OBJ	V	1	0.5429999999999999	UT	UT	UT	UT
20.0011	0.5	Valid Other Obj: stimulus that was an untested or no response object and that followed a valid cue	OBJ	V	1	0.5429999999999999	UT	UT	UT	UT
22.0008	1.0	Invalid Miss Cue: invalid cue where following object was a subsequent miss	OBJ	NV	1	0.61179	HC-MISS	 2.4403	UT	UT
24.0008	0.5	Invalid Miss Obj: object that was a subsequent miss and that followed an invalid cue	OBJ	NV	1	0.61179	HC-MISS	 2.4403	UT	UT
30.0015	1.0	Valid LC-Hit Cue: valid cue where following object was a subsequent low confidence hit	OBJ	V	1	0.80784	LC-HIT	 2.7372	1	1.2286
34.0015	0.5	Valid LC-Hit Obj: object that was a subsequent low confidence hit and that followed a valid cue	OBJ	V	1	0.80784	LC-HIT	 2.7372	1	1.2286
36.0012	1.0	Valid Miss Cue: valid cue where following object was a subsequent miss	OBJ	V	1	0.73668	LC-MISS	0.68749	UT	UT
42.0012	0.5	Valid Miss Obj: object that was a subsequent miss and that followed a valid cue	OBJ	V	1	0.73668	LC-MISS	0.68749	UT	UT
46.0015	1.0	Valid Other Greeble Cue: valid cue where following stimulus was an untested or no response greeble	GRE	V	1	0.7772899999999999	UT	UT	UT	UT
48.0015	0.5	Valid Other Greeble: stimulus that was an untested or no response greeble and that followed a valid cue	GRE	V	1	0.7772899999999999	UT	UT	UT	UT
50.0015	1.0	Valid Miss Cue: valid cue where following object was a subsequent miss	OBJ	V	1	0.97816	HC-MISS	 2.9096	UT	UT
56.0015	0.5	Valid Miss Obj: object that was a subsequent miss and that followed a valid cue	OBJ	V	1	0.97816	HC-MISS	 2.9096	UT	UT
58.0015	1.0	Valid Other Greeble Cue: valid cue where following stimulus was an untested or no response greeble	GRE	V	1	0.67314	UT	UT	UT	UT
64.0015	0.5	Valid Other Greeble: stimulus that was an untested or no response greeble and that followed a valid cue	GRE	V	1	0.67314	UT	UT	UT	UT
66.0018	1.0	Valid Other Greeble Cue: valid cue where following stimulus was an untested or no response greeble	GRE	V	1	0.70489	UT	UT	UT	UT
72.0018	0.5	Valid Other Greeble: stimulus that was an untested or no response greeble and that followed a valid cue	GRE	V	1	0.70489	UT	UT	UT	UT
76.0012	1.0	Invalid Miss Cue: invalid cue where following object was a subsequent miss	OBJ	NV	1	0.7357600000000001	LC-MISS	 1.6826	UT	UT
80.0012	0.5	Invalid Miss Obj: object that was a subsequent miss and that followed an invalid cue	OBJ	NV	1	0.7357600000000001	LC-MISS	 1.6826	UT	UT
82.0007	1.0	Valid Miss Cue: valid cue where following object was a subsequent miss	OBJ	V	1	0.9756299999999999	LC-MISS	 1.2931	UT	UT
88.0007	0.5	Valid Miss Obj: object that was a subsequent miss and that followed a valid cue	OBJ	V	1	0.9756299999999999	LC-MISS	 1.2931	UT	UT
90.0011	1.0	Valid Miss Cue: valid cue where following object was a subsequent miss	OBJ	V	1	0.75507	LC-MISS	 1.0719	UT	UT
92.0011	0.5	Valid Miss Obj: object that was a subsequent miss and that followed a valid cue	OBJ	V	1	0.75507	LC-MISS	 1.0719	UT	UT
94.001	1.0	Valid Miss Cue: valid cue where following object was a subsequent miss	OBJ	V	1	1.0272	LC-MISS	0.71688	UT	UT
100.001	0.5	Valid Miss Obj: object that was a subsequent miss and that followed a valid cue	OBJ	V	1	1.0272	LC-MISS	0.71688	UT	UT
102.0013	1.0	Valid Other Obj Cue: valid cue where following stimulus was an untested or no response object	OBJ	V	1	0.83439	UT	UT	UT	UT
108.0013	0.5	Valid Other Obj: stimulus that was an untested or no response object and that followed a valid cue	OBJ	V	1	0.83439	UT	UT	UT	UT
110.0012	1.0	Valid Miss Cue: valid cue where following object was a subsequent miss	OBJ	V	1	0.72428	LC-MISS	 1.8715	UT	UT
114.0012	0.5	Valid Miss Obj: object that was a subsequent miss and that followed a valid cue	OBJ	V	1	0.72428	LC-MISS	 1.8715	UT	UT
116.0011	1.0	Valid Other Greeble Cue: valid cue where following stimulus was an untested or no response greeble	GRE	V	1	0.7560399999999999	UT	UT	UT	UT
122.0011	0.5	Valid Other Greeble: stimulus that was an untested or no response greeble and that followed a valid cue	GRE	V	1	0.7560399999999999	UT	UT	UT	UT
124.001	1.0	Valid Miss Cue: valid cue where following object was a subsequent miss	OBJ	V	1	0.8697799999999999	LC-MISS	 1.5265	UT	UT
128.001	0.5	Valid Miss Obj: object that was a subsequent miss and that followed a valid cue	OBJ	V	1	0.8697799999999999	LC-MISS	 1.5265	UT	UT
130.0017	1.0	Invalid Miss Cue: invalid cue where following object was a subsequent miss	OBJ	NV	1	1.1329	LC-MISS	 2.6977	UT	UT
136.0017	0.5	Invalid Miss Obj: object that was a subsequent miss and that followed an invalid cue	OBJ	NV	1	1.1329	LC-MISS	 2.6977	UT	UT
140.0017	1.0	Valid Miss Cue: valid cue where following object was a subsequent miss	OBJ	V	1	0.6548	LC-MISS	 1.4357	UT	UT
142.0017	0.5	Valid Miss Obj: object that was a subsequent miss and that followed a valid cue	OBJ	V	1	0.6548	LC-MISS	 1.4357	UT	UT
144.0007	1.0	Valid LC-Hit Cue: valid cue where following object was a subsequent low confidence hit	OBJ	V	1	0.65169	LC-HIT	 1.6076	0	0.44353
146.0007	0.5	Valid LC-Hit Obj: object that was a subsequent low confidence hit and that followed a valid cue	OBJ	V	1	0.65169	LC-HIT	 1.6076	0	0.44353
148.0013	1.0	Valid Other Greeble Cue: valid cue where following stimulus was an untested or no response greeble	GRE	V	1	0.7710600000000001	UT	UT	UT	UT
154.0013	0.5	Valid Other Greeble: stimulus that was an untested or no response greeble and that followed a valid cue	GRE	V	1	0.7710600000000001	UT	UT	UT	UT
156.0017	1.0	Valid Miss Cue: valid cue where following object was a subsequent miss	OBJ	V	1	0.54884	LC-MISS	 1.1204	UT	UT
160.0017	0.5	Valid Miss Obj: object that was a subsequent miss and that followed a valid cue	OBJ	V	1	0.54884	LC-MISS	 1.1204	UT	UT
164.0013	1.0	Valid Other Obj Cue: valid cue where following stimulus was an untested or no response object	OBJ	V	1	1.1422	UT	UT	UT	UT
166.0013	0.5	Valid Other Obj: stimulus that was an untested or no response object and that followed a valid cue	OBJ	V	1	1.1422	UT	UT	UT	UT
168.00099999999998	1.0	Valid Other Greeble Cue: valid cue where following stimulus was an untested or no response greeble	GRE	V	0	1.1623	UT	UT	UT	UT
170.00099999999998	0.5	Valid Other Greeble: stimulus that was an untested or no response greeble and that followed a valid cue	GRE	V	0	1.1623	UT	UT	UT	UT
172.0015	1.0	Valid Other Greeble Cue: valid cue where following stimulus was an untested or no response greeble	GRE	V	1	0.74608	UT	UT	UT	UT
178.0015	0.5	Valid Other Greeble: stimulus that was an untested or no response greeble and that followed a valid cue	GRE	V	1	0.74608	UT	UT	UT	UT
180.0013	1.0	Invalid Miss Cue: invalid cue where following object was a subsequent miss	OBJ	NV	1	0.62541	LC-MISS	 1.7093	UT	UT
186.0013	0.5	Invalid Miss Obj: object that was a subsequent miss and that followed an invalid cue	OBJ	NV	1	0.62541	LC-MISS	 1.7093	UT	UT
188.0013	1.0	Valid Miss Cue: valid cue where following object was a subsequent miss	OBJ	V	1	0.7085600000000001	LC-MISS	0.91037	UT	UT
190.0013	0.5	Valid Miss Obj: object that was a subsequent miss and that followed a valid cue	OBJ	V	1	0.7085600000000001	LC-MISS	0.91037	UT	UT
192.0019	1.0	Valid HC-Hit Cue: valid cue where following object was a subsequent high confidence hit	OBJ	V	1	0.58444	HC-HIT	 1.3654	1	0.58425
194.0019	0.5	Valid HC-Hit Obj: object that was a subsequent high confidence hit and that followed a valid cue	OBJ	V	1	0.58444	HC-HIT	 1.3654	1	0.58425
198.0015	1.0	Valid Other Greeble Cue: valid cue where following stimulus was an untested or no response greeble	GRE	V	1	0.6485	UT	UT	UT	UT
202.0015	0.5	Valid Other Greeble: stimulus that was an untested or no response greeble and that followed a valid cue	GRE	V	1	0.6485	UT	UT	UT	UT
204.0018	1.0	Valid Miss Cue: valid cue where following object was a subsequent miss	OBJ	V	1	0.75471	LC-MISS	  2.074	UT	UT
208.0018	0.5	Valid Miss Obj: object that was a subsequent miss and that followed a valid cue	OBJ	V	1	0.75471	LC-MISS	  2.074	UT	UT
212.0011	1.0	Valid LC-Hit Cue: valid cue where following object was a subsequent low confidence hit	OBJ	V	1	0.8891100000000001	LC-HIT	 2.3688	0	0.33498
216.0011	0.5	Valid LC-Hit Obj: object that was a subsequent low confidence hit and that followed a valid cue	OBJ	V	1	0.8891100000000001	LC-HIT	 2.3688	0	0.33498
218.0004	1.0	Valid Other Greeble Cue: valid cue where following stimulus was an untested or no response greeble	GRE	V	1	0.7631399999999999	UT	UT	UT	UT
222.0004	0.5	Valid Other Greeble: stimulus that was an untested or no response greeble and that followed a valid cue	GRE	V	1	0.7631399999999999	UT	UT	UT	UT
224.0013	1.0	Invalid Other Greeble Cue: invalid cue where following stimulus was an untested or no response greeble	GRE	NV	1	0.62833	UT	UT	UT	UT
228.0013	0.5	Invalid Other Greeble: stimulus that was an untested or no response greeble and that followed a invalid cue	GRE	NV	1	0.62833	UT	UT	UT	UT
230.0017	1.0	Valid Miss Cue: valid cue where following object was a subsequent miss	OBJ	V	1	0.9095	LC-MISS	 0.7967	UT	UT
234.0017	0.5	Valid Miss Obj: object that was a subsequent miss and that followed a valid cue	OBJ	V	1	0.9095	LC-MISS	 0.7967	UT	UT
240.0014	1.0	Valid Miss Cue: valid cue where following object was a subsequent miss	OBJ	V	1	0.93965	LC-MISS	 2.2437	UT	UT
244.0014	0.5	Valid Miss Obj: object that was a subsequent miss and that followed a valid cue	OBJ	V	1	0.93965	LC-MISS	 2.2437	UT	UT
246.0017	1.0	Invalid LC-Hit Cue: invalid cue where following object was a subsequent low confidence hit	OBJ	NV	1	0.61433	LC-HIT	  2.835	1	1.329
250.0017	0.5	Invalid LC-Hit Obj: object that was a subsequent low confidence hit and that followed an invalid cue	OBJ	NV	1	0.61433	LC-HIT	  2.835	1	1.329
252.0016	1.0	Valid Miss Cue: valid cue where following object was a subsequent miss	OBJ	V	1	0.79981	HC-MISS	 1.0451	UT	UT
256.0016	0.5	Valid Miss Obj: object that was a subsequent miss and that followed a valid cue	OBJ	V	1	0.79981	HC-MISS	 1.0451	UT	UT
258.0018	1.0	Valid Other Greeble Cue: valid cue where following stimulus was an untested or no response greeble	GRE	V	1	0.7025399999999999	UT	UT	UT	UT
264.0018	0.5	Valid Other Greeble: stimulus that was an untested or no response greeble and that followed a valid cue	GRE	V	1	0.7025399999999999	UT	UT	UT	UT
266.001	1.0	Valid HC-Hit Cue: valid cue where following object was a subsequent high confidence hit	OBJ	V	1	0.75435	HC-HIT	 2.2844	1	1.6575
268.001	0.5	Valid HC-Hit Obj: object that was a subsequent high confidence hit and that followed a valid cue	OBJ	V	1	0.75435	HC-HIT	 2.2844	1	1.6575
270.0012	1.0	Invalid Miss Cue: invalid cue where following object was a subsequent miss	OBJ	NV	1	1.0624	LC-MISS	  1.868	UT	UT
272.0012	0.5	Invalid Miss Obj: object that was a subsequent miss and that followed an invalid cue	OBJ	NV	1	1.0624	LC-MISS	  1.868	UT	UT
276.0017	1.0	Valid Other Obj Cue: valid cue where following stimulus was an untested or no response object	OBJ	V	1	0.70407	UT	UT	UT	UT
278.0017	0.5	Valid Other Obj: stimulus that was an untested or no response object and that followed a valid cue	OBJ	V	1	0.70407	UT	UT	UT	UT
280.0015	1.0	Valid Other Greeble Cue: valid cue where following stimulus was an untested or no response greeble	GRE	V	1	0.67667	UT	UT	UT	UT
282.0015	0.5	Valid Other Greeble: stimulus that was an untested or no response greeble and that followed a valid cue	GRE	V	1	0.67667	UT	UT	UT	UT
284.0013	1.0	Valid Miss Cue: valid cue where following object was a subsequent miss	OBJ	V	1	0.65989	LC-MISS	0.79328	UT	UT
290.0013	0.5	Valid Miss Obj: object that was a subsequent miss and that followed a valid cue	OBJ	V	1	0.65989	LC-MISS	0.79328	UT	UT
292.0014	1.0	Valid Miss Cue: valid cue where following object was a subsequent miss	OBJ	V	1	0.64699	LC-MISS	 1.2125	UT	UT
294.0014	0.5	Valid Miss Obj: object that was a subsequent miss and that followed a valid cue	OBJ	V	1	0.64699	LC-MISS	 1.2125	UT	UT
296.0017	1.0	Valid Miss Cue: valid cue where following object was a subsequent miss	OBJ	V	1	0.9536	LC-MISS	 2.6105	UT	UT
300.0017	0.5	Valid Miss Obj: object that was a subsequent miss and that followed a valid cue	OBJ	V	1	0.9536	LC-MISS	 2.6105	UT	UT
302.0019	1.0	Invalid Miss Cue: invalid cue where following object was a subsequent miss	OBJ	NV	1	0.59487	LC-MISS	0.59159	UT	UT
306.0019	0.5	Invalid Miss Obj: object that was a subsequent miss and that followed an invalid cue	OBJ	NV	1	0.59487	LC-MISS	0.59159	UT	UT
310.001	1.0	Valid Miss Cue: valid cue where following object was a subsequent miss	OBJ	V	1	0.7121	LC-MISS	 1.0671	UT	UT
316.001	0.5	Valid Miss Obj: object that was a subsequent miss and that followed a valid cue	OBJ	V	1	0.7121	LC-MISS	 1.0671	UT	UT
318.0018	1.0	Valid Miss Cue: valid cue where following object was a subsequent miss	OBJ	V	1	0.7795300000000001	LC-MISS	   1.76	UT	UT
320.0018	0.5	Valid Miss Obj: object that was a subsequent miss and that followed a valid cue	OBJ	V	1	0.7795300000000001	LC-MISS	   1.76	UT	UT
324.0013	1.0	Invalid Other Greeble Cue: invalid cue where following stimulus was an untested or no response greeble	GRE	NV	1	0.67795	UT	UT	UT	UT
326.0013	0.5	Invalid Other Greeble: stimulus that was an untested or no response greeble and that followed a invalid cue	GRE	NV	1	0.67795	UT	UT	UT	UT
328.0008	1.0	Valid Other Greeble Cue: valid cue where following stimulus was an untested or no response greeble	GRE	V	1	0.6785800000000001	UT	UT	UT	UT
334.0008	0.5	Valid Other Greeble: stimulus that was an untested or no response greeble and that followed a valid cue	GRE	V	1	0.6785800000000001	UT	UT	UT	UT
338.0014	1.0	Valid Other Greeble Cue: valid cue where following stimulus was an untested or no response greeble	GRE	V	1	0.6459999999999999	UT	UT	UT	UT
340.0014	0.5	Valid Other Greeble: stimulus that was an untested or no response greeble and that followed a valid cue	GRE	V	1	0.6459999999999999	UT	UT	UT	UT
342.0013	1.0	Valid HC-Hit Cue: valid cue where following object was a subsequent high confidence hit	OBJ	V	1	0.76663	HC-HIT	 2.3748	0	2.3948
348.0013	0.5	Valid HC-Hit Obj: object that was a subsequent high confidence hit and that followed a valid cue	OBJ	V	1	0.76663	HC-HIT	 2.3748	0	2.3948
350.0018	1.0	Valid Miss Cue: valid cue where following object was a subsequent miss	OBJ	V	1	0.6323300000000001	LC-MISS	 1.2289	UT	UT
354.0018	0.5	Valid Miss Obj: object that was a subsequent miss and that followed a valid cue	OBJ	V	1	0.6323300000000001	LC-MISS	 1.2289	UT	UT
356.0011	1.0	Valid Other Greeble Cue: valid cue where following stimulus was an untested or no response greeble	GRE	V	1	0.6835100000000001	UT	UT	UT	UT
360.0011	0.5	Valid Other Greeble: stimulus that was an untested or no response greeble and that followed a valid cue	GRE	V	1	0.6835100000000001	UT	UT	UT	UT
362.0009	1.0	Invalid Miss Cue: invalid cue where following object was a subsequent miss	OBJ	NV	1	1.1655	LC-MISS	0.82772	UT	UT
364.0009	0.5	Invalid Miss Obj: object that was a subsequent miss and that followed an invalid cue	OBJ	NV	1	1.1655	LC-MISS	0.82772	UT	UT
