onset	duration	trial_type	Object_Cond	Validity_Cond	Obj_Accuracy	Obj_Acc_RT	Subseq_Recog	Subseq_Recog_RT	Subseq_Source_Mem_Acc	Subseq_Source_Mem_Acc_RT
4.001	1.000	Valid Other Greeble Cue: valid cue where following stimulus was an untested or no response greeble	GRE	V	1	0.780	UT	UT	UT	UT
10.001	0.500	Valid Other Greeble: stimulus that was an untested or no response greeble and that followed a valid cue	GRE	V	1	0.780	UT	UT	UT	UT
12.001	1.000	Valid Miss Cue: valid cue where following object was a subsequent miss	OBJ	V	1	0.855	LC-MISS	 1.6912	UT	UT
14.001	0.500	Valid Miss Obj: object that was a subsequent miss and that followed a valid cue	OBJ	V	1	0.855	LC-MISS	 1.6912	UT	UT
16.001	1.000	Valid HC-Hit Cue: valid cue where following object was a subsequent high confidence hit	OBJ	V	1	0.485	HC-HIT	 1.3527	1	1.2286
20.001	0.500	Valid HC-Hit Obj: object that was a subsequent high confidence hit and that followed a valid cue	OBJ	V	1	0.485	HC-HIT	 1.3527	1	1.2286
22.002	1.000	Valid Other Greeble Cue: valid cue where following stimulus was an untested or no response greeble	GRE	V	1	0.801	UT	UT	UT	UT
28.002	0.500	Valid Other Greeble: stimulus that was an untested or no response greeble and that followed a valid cue	GRE	V	1	0.801	UT	UT	UT	UT
30.001	1.000	Invalid Miss Cue: invalid cue where following object was a subsequent miss	OBJ	NV	1	0.698	HC-MISS	 2.1406	UT	UT
34.001	0.500	Invalid Miss Obj: object that was a subsequent miss and that followed an invalid cue	OBJ	NV	1	0.698	HC-MISS	 2.1406	UT	UT
36.001	1.000	Valid Other Obj Cue: valid cue where following stimulus was an untested or no response object	OBJ	V	1	0.778	UT	UT	UT	UT
42.001	0.500	Valid Other Obj: stimulus that was an untested or no response object and that followed a valid cue	OBJ	V	1	0.778	UT	UT	UT	UT
46.001	1.000	Valid Miss Cue: valid cue where following object was a subsequent miss	OBJ	V	1	0.667	HC-MISS	 1.1995	UT	UT
48.001	0.500	Valid Miss Obj: object that was a subsequent miss and that followed a valid cue	OBJ	V	1	0.667	HC-MISS	 1.1995	UT	UT
50.002	1.000	Valid Miss Cue: valid cue where following object was a subsequent miss	OBJ	V	1	0.685	HC-MISS	  0.793	UT	UT
54.002	0.500	Valid Miss Obj: object that was a subsequent miss and that followed a valid cue	OBJ	V	1	0.685	HC-MISS	  0.793	UT	UT
56.001	1.000	Invalid Miss Cue: invalid cue where following object was a subsequent miss	OBJ	NV	1	0.729	HC-MISS	 1.3964	UT	UT
58.001	0.500	Invalid Miss Obj: object that was a subsequent miss and that followed an invalid cue	OBJ	NV	1	0.729	HC-MISS	 1.3964	UT	UT
60.001	1.000	Valid Miss Cue: valid cue where following object was a subsequent miss	OBJ	V	1	0.680	HC-MISS	0.86435	UT	UT
66.001	0.500	Valid Miss Obj: object that was a subsequent miss and that followed a valid cue	OBJ	V	1	0.680	HC-MISS	0.86435	UT	UT
68.001	1.000	Valid Other Greeble Cue: valid cue where following stimulus was an untested or no response greeble	GRE	V	1	0.676	UT	UT	UT	UT
70.001	0.500	Valid Other Greeble: stimulus that was an untested or no response greeble and that followed a valid cue	GRE	V	1	0.676	UT	UT	UT	UT
72.001	1.000	Valid Miss Cue: valid cue where following object was a subsequent miss	OBJ	V	1	0.711	LC-MISS	 1.1433	UT	UT
76.001	0.500	Valid Miss Obj: object that was a subsequent miss and that followed a valid cue	OBJ	V	1	0.711	LC-MISS	 1.1433	UT	UT
78.001	1.000	Valid HC-Hit Cue: valid cue where following object was a subsequent high confidence hit	OBJ	V	1	0.565	HC-HIT	 1.3793	1	1.6131
84.001	0.500	Valid HC-Hit Obj: object that was a subsequent high confidence hit and that followed a valid cue	OBJ	V	1	0.565	HC-HIT	 1.3793	1	1.6131
86.002	1.000	Valid Miss Cue: valid cue where following object was a subsequent miss	OBJ	V	1	0.623	LC-MISS	 1.4822	UT	UT
90.002	0.500	Valid Miss Obj: object that was a subsequent miss and that followed a valid cue	OBJ	V	1	0.623	LC-MISS	 1.4822	UT	UT
94.002	1.000	Valid Other Greeble Cue: valid cue where following stimulus was an untested or no response greeble	GRE	V	1	0.598	UT	UT	UT	UT
98.002	0.500	Valid Other Greeble: stimulus that was an untested or no response greeble and that followed a valid cue	GRE	V	1	0.598	UT	UT	UT	UT
100.001	1.000	Invalid Miss Cue: invalid cue where following object was a subsequent miss	OBJ	NV	1	0.730	HC-MISS	 1.3499	UT	UT
102.001	0.500	Invalid Miss Obj: object that was a subsequent miss and that followed an invalid cue	OBJ	NV	1	0.730	HC-MISS	 1.3499	UT	UT
106.001	1.000	Valid Miss Cue: valid cue where following object was a subsequent miss	OBJ	V	1	0.674	LC-MISS	 1.0033	UT	UT
110.001	0.500	Valid Miss Obj: object that was a subsequent miss and that followed a valid cue	OBJ	V	1	0.674	LC-MISS	 1.0033	UT	UT
114.001	1.000	Valid Miss Cue: valid cue where following object was a subsequent miss	OBJ	V	1	1.194	HC-MISS	 1.1323	UT	UT
118.001	0.500	Valid Miss Obj: object that was a subsequent miss and that followed a valid cue	OBJ	V	1	1.194	HC-MISS	 1.1323	UT	UT
120.001	1.000	Valid Other Obj Cue: valid cue where following stimulus was an untested or no response object	OBJ	V	1	1.414	UT	UT	UT	UT
122.001	0.500	Valid Other Obj: stimulus that was an untested or no response object and that followed a valid cue	OBJ	V	1	1.414	UT	UT	UT	UT
124.001	1.000	Valid Miss Cue: valid cue where following object was a subsequent miss	OBJ	V	1	0.883	HC-MISS	 1.6052	UT	UT
126.001	0.500	Valid Miss Obj: object that was a subsequent miss and that followed a valid cue	OBJ	V	1	0.883	HC-MISS	 1.6052	UT	UT
128.001	1.000	Valid HC-Hit Cue: valid cue where following object was a subsequent high confidence hit	OBJ	V	1	0.754	HC-HIT	 2.1374	1	0.92705
134.001	0.500	Valid HC-Hit Obj: object that was a subsequent high confidence hit and that followed a valid cue	OBJ	V	1	0.754	HC-HIT	 2.1374	1	0.92705
136.002	1.000	Valid Other Greeble Cue: valid cue where following stimulus was an untested or no response greeble	GRE	V	1	0.771	UT	UT	UT	UT
140.002	0.500	Valid Other Greeble: stimulus that was an untested or no response greeble and that followed a valid cue	GRE	V	1	0.771	UT	UT	UT	UT
142.002	1.000	Valid Miss Cue: valid cue where following object was a subsequent miss	OBJ	V	1	0.575	LC-MISS	  1.486	UT	UT
144.002	0.500	Valid Miss Obj: object that was a subsequent miss and that followed a valid cue	OBJ	V	1	0.575	LC-MISS	  1.486	UT	UT
146.002	1.000	Valid Miss Cue: valid cue where following object was a subsequent miss	OBJ	V	1	0.610	LC-MISS	0.95145	UT	UT
148.002	0.500	Valid Miss Obj: object that was a subsequent miss and that followed a valid cue	OBJ	V	1	0.610	LC-MISS	0.95145	UT	UT
152.002	1.000	Valid Miss Cue: valid cue where following object was a subsequent miss	OBJ	V	1	0.549	LC-MISS	0.96144	UT	UT
154.002	0.500	Valid Miss Obj: object that was a subsequent miss and that followed a valid cue	OBJ	V	1	0.549	LC-MISS	0.96144	UT	UT
156.001	1.000	Invalid Miss Cue: invalid cue where following object was a subsequent miss	OBJ	NV	1	0.751	HC-MISS	 1.3945	UT	UT
160.001	0.500	Invalid Miss Obj: object that was a subsequent miss and that followed an invalid cue	OBJ	NV	1	0.751	HC-MISS	 1.3945	UT	UT
164.001	1.000	Valid LC-Hit Cue: valid cue where following object was a subsequent low confidence hit	OBJ	V	1	0.597	LC-HIT	 2.5694	1	0.53048
168.001	0.500	Valid LC-Hit Obj: object that was a subsequent low confidence hit and that followed a valid cue	OBJ	V	1	0.597	LC-HIT	 2.5694	1	0.53048
170.001	1.000	Valid Miss Cue: valid cue where following object was a subsequent miss	OBJ	V	1	0.566	LC-MISS	 1.4058	UT	UT
176.001	0.500	Valid Miss Obj: object that was a subsequent miss and that followed a valid cue	OBJ	V	1	0.566	LC-MISS	 1.4058	UT	UT
178.001	1.000	Valid Other Greeble Cue: valid cue where following stimulus was an untested or no response greeble	GRE	V	1	0.668	UT	UT	UT	UT
184.001	0.500	Valid Other Greeble: stimulus that was an untested or no response greeble and that followed a valid cue	GRE	V	1	0.668	UT	UT	UT	UT
186.001	1.000	Valid Other Greeble Cue: valid cue where following stimulus was an untested or no response greeble	GRE	V	1	0.696	UT	UT	UT	UT
188.001	0.500	Valid Other Greeble: stimulus that was an untested or no response greeble and that followed a valid cue	GRE	V	1	0.696	UT	UT	UT	UT
190.001	1.000	Valid Other Greeble Cue: valid cue where following stimulus was an untested or no response greeble	GRE	V	1	0.568	UT	UT	UT	UT
196.001	0.500	Valid Other Greeble: stimulus that was an untested or no response greeble and that followed a valid cue	GRE	V	1	0.568	UT	UT	UT	UT
200.002	1.000	Invalid LC-Hit Cue: invalid cue where following object was a subsequent low confidence hit	OBJ	NV	1	0.745	LC-HIT	 2.6198	0	0.67953
202.002	0.500	Invalid LC-Hit Obj: object that was a subsequent low confidence hit and that followed an invalid cue	OBJ	NV	1	0.745	LC-HIT	 2.6198	0	0.67953
208.001	1.000	Valid Other Obj Cue: valid cue where following stimulus was an untested or no response object	OBJ	V	1	0.822	UT	UT	UT	UT
212.001	0.500	Valid Other Obj: stimulus that was an untested or no response object and that followed a valid cue	OBJ	V	1	0.822	UT	UT	UT	UT
214.001	1.000	Valid Miss Cue: valid cue where following object was a subsequent miss	OBJ	V	1	0.710	LC-MISS	 1.0495	UT	UT
220.001	0.500	Valid Miss Obj: object that was a subsequent miss and that followed a valid cue	OBJ	V	1	0.710	LC-MISS	 1.0495	UT	UT
222.002	1.000	Valid Miss Cue: valid cue where following object was a subsequent miss	OBJ	V	1	0.599	HC-MISS	 1.3543	UT	UT
228.002	0.500	Valid Miss Obj: object that was a subsequent miss and that followed a valid cue	OBJ	V	1	0.599	HC-MISS	 1.3543	UT	UT
232.001	1.000	Valid Miss Cue: valid cue where following object was a subsequent miss	OBJ	V	1	1.247	HC-MISS	 1.9804	UT	UT
234.001	0.500	Valid Miss Obj: object that was a subsequent miss and that followed a valid cue	OBJ	V	1	1.247	HC-MISS	 1.9804	UT	UT
236.001	1.000	Valid Other Greeble Cue: valid cue where following stimulus was an untested or no response greeble	GRE	V	1	0.737	UT	UT	UT	UT
240.001	0.500	Valid Other Greeble: stimulus that was an untested or no response greeble and that followed a valid cue	GRE	V	1	0.737	UT	UT	UT	UT
242.002	1.000	Valid Other Greeble Cue: valid cue where following stimulus was an untested or no response greeble	GRE	V	1	0.593	UT	UT	UT	UT
248.002	0.500	Valid Other Greeble: stimulus that was an untested or no response greeble and that followed a valid cue	GRE	V	1	0.593	UT	UT	UT	UT
250.001	1.000	Invalid LC-Hit Cue: invalid cue where following object was a subsequent low confidence hit	OBJ	NV	1	0.786	LC-HIT	 2.1592	0	1.6471
256.001	0.500	Invalid LC-Hit Obj: object that was a subsequent low confidence hit and that followed an invalid cue	OBJ	NV	1	0.786	LC-HIT	 2.1592	0	1.6471
260.002	1.000	Valid Other Obj Cue: valid cue where following stimulus was an untested or no response object	OBJ	V	1	0.582	UT	UT	UT	UT
266.002	0.500	Valid Other Obj: stimulus that was an untested or no response object and that followed a valid cue	OBJ	V	1	0.582	UT	UT	UT	UT
268.002	1.000	Valid Miss Cue: valid cue where following object was a subsequent miss	OBJ	V	1	0.600	LC-MISS	0.70771	UT	UT
272.002	0.500	Valid Miss Obj: object that was a subsequent miss and that followed a valid cue	OBJ	V	1	0.600	LC-MISS	0.70771	UT	UT
278.002	1.000	Valid Other Greeble Cue: valid cue where following stimulus was an untested or no response greeble	GRE	V	1	0.647	UT	UT	UT	UT
280.002	0.500	Valid Other Greeble: stimulus that was an untested or no response greeble and that followed a valid cue	GRE	V	1	0.647	UT	UT	UT	UT
282.001	1.000	Invalid Miss Cue: invalid cue where following object was a subsequent miss	OBJ	NV	1	1.017	HC-MISS	 2.0302	UT	UT
286.001	0.500	Invalid Miss Obj: object that was a subsequent miss and that followed an invalid cue	OBJ	NV	1	1.017	HC-MISS	 2.0302	UT	UT
288.001	1.000	Valid Miss Cue: valid cue where following object was a subsequent miss	OBJ	V	1	0.568	LC-MISS	 1.5928	UT	UT
294.001	0.500	Valid Miss Obj: object that was a subsequent miss and that followed a valid cue	OBJ	V	1	0.568	LC-MISS	 1.5928	UT	UT
296.002	1.000	Valid Other Greeble Cue: valid cue where following stimulus was an untested or no response greeble	GRE	V	1	0.617	UT	UT	UT	UT
302.002	0.500	Valid Other Greeble: stimulus that was an untested or no response greeble and that followed a valid cue	GRE	V	1	0.617	UT	UT	UT	UT
304.002	1.000	Valid Miss Cue: valid cue where following object was a subsequent miss	OBJ	V	1	0.700	LC-MISS	0.82917	UT	UT
306.002	0.500	Valid Miss Obj: object that was a subsequent miss and that followed a valid cue	OBJ	V	1	0.700	LC-MISS	0.82917	UT	UT
310.002	1.000	Valid Other Greeble Cue: valid cue where following stimulus was an untested or no response greeble	GRE	V	1	0.604	UT	UT	UT	UT
314.002	0.500	Valid Other Greeble: stimulus that was an untested or no response greeble and that followed a valid cue	GRE	V	1	0.604	UT	UT	UT	UT
316.001	1.000	Invalid Miss Cue: invalid cue where following object was a subsequent miss	OBJ	NV	1	0.699	LC-MISS	0.66524	UT	UT
322.001	0.500	Invalid Miss Obj: object that was a subsequent miss and that followed an invalid cue	OBJ	NV	1	0.699	LC-MISS	0.66524	UT	UT
324.001	1.000	Valid Miss Cue: valid cue where following object was a subsequent miss	OBJ	V	1	0.797	LC-MISS	 1.2602	UT	UT
328.001	0.500	Valid Miss Obj: object that was a subsequent miss and that followed a valid cue	OBJ	V	1	0.797	LC-MISS	 1.2602	UT	UT
330.001	1.000	Valid Other Obj Cue: valid cue where following stimulus was an untested or no response object	OBJ	V	1	0.825	UT	UT	UT	UT
332.001	0.500	Valid Other Obj: stimulus that was an untested or no response object and that followed a valid cue	OBJ	V	1	0.825	UT	UT	UT	UT
334.001	1.000	Valid Other Greeble Cue: valid cue where following stimulus was an untested or no response greeble	GRE	V	1	0.605	UT	UT	UT	UT
336.001	0.500	Valid Other Greeble: stimulus that was an untested or no response greeble and that followed a valid cue	GRE	V	1	0.605	UT	UT	UT	UT
338.001	1.000	Valid Miss Cue: valid cue where following object was a subsequent miss	OBJ	V	1	0.663	HC-MISS	 2.5585	UT	UT
342.001	0.500	Valid Miss Obj: object that was a subsequent miss and that followed a valid cue	OBJ	V	1	0.663	HC-MISS	 2.5585	UT	UT
344.001	1.000	Invalid Other Greeble Cue: invalid cue where following stimulus was an untested or no response greeble	GRE	NV	1	0.635	UT	UT	UT	UT
346.001	0.500	Invalid Other Greeble: stimulus that was an untested or no response greeble and that followed a invalid cue	GRE	NV	1	0.635	UT	UT	UT	UT
348.001	1.000	Valid HC-Hit Cue: valid cue where following object was a subsequent high confidence hit	OBJ	V	1	0.732	HC-HIT	 2.1148	1	0.58914
352.001	0.500	Valid HC-Hit Obj: object that was a subsequent high confidence hit and that followed a valid cue	OBJ	V	1	0.732	HC-HIT	 2.1148	1	0.58914
354.002	1.000	Valid Miss Cue: valid cue where following object was a subsequent miss	OBJ	V	1	0.608	LC-MISS	 1.5837	UT	UT
356.002	0.500	Valid Miss Obj: object that was a subsequent miss and that followed a valid cue	OBJ	V	1	0.608	LC-MISS	 1.5837	UT	UT
358.001	1.000	Invalid Other Greeble Cue: invalid cue where following stimulus was an untested or no response greeble	GRE	NV	1	0.791	UT	UT	UT	UT
364.001	0.500	Invalid Other Greeble: stimulus that was an untested or no response greeble and that followed a invalid cue	GRE	NV	1	0.791	UT	UT	UT	UT
