onset	duration	trial_type	Object_Cond	Validity_Cond	Obj_Accuracy	Obj_Acc_RT	Subseq_Recog	Subseq_Recog_RT	Subseq_Source_Mem_Acc	Subseq_Source_Mem_Acc_RT
4.0013	1.0	Valid Other Obj Cue: valid cue where following stimulus was an untested or no response object	OBJ	V	1	0.43169	UT	UT	UT	UT
10.0013	0.5	Valid Other Obj: stimulus that was an untested or no response object and that followed a valid cue	OBJ	V	1	0.43169	UT	UT	UT	UT
12.001	1.0	Valid Miss Cue: valid cue where following object was a subsequent miss	OBJ	V	1	 0.7101	LC-MISS	 1.0082	UT	UT
16.000999999999998	0.5	Valid Miss Obj: object that was a subsequent miss and that followed a valid cue	OBJ	V	1	 0.7101	LC-MISS	 1.0082	UT	UT
18.0014	1.0	Valid Other Greeble Cue: valid cue where following stimulus was an untested or no response greeble	GRE	V	1	0.43317	UT	UT	UT	UT
24.0014	0.5	Valid Other Greeble: stimulus that was an untested or no response greeble and that followed a valid cue	GRE	V	1	0.43317	UT	UT	UT	UT
28.0009	1.0	Invalid Miss Cue: invalid cue where following object was a subsequent miss	OBJ	NV	1	0.78123	LC-MISS	 2.6686	UT	UT
32.0009	0.5	Invalid Miss Obj: object that was a subsequent miss and that followed an invalid cue	OBJ	NV	1	0.78123	LC-MISS	 2.6686	UT	UT
34.0009	1.0	Valid Other Greeble Cue: valid cue where following stimulus was an untested or no response greeble	GRE	V	1	0.65535	UT	UT	UT	UT
36.0009	0.5	Valid Other Greeble: stimulus that was an untested or no response greeble and that followed a valid cue	GRE	V	1	0.65535	UT	UT	UT	UT
38.0017	1.0	Valid LC-Hit Cue: valid cue where following object was a subsequent low confidence hit	OBJ	V	0	0.47288	LC-HIT	 2.6431	0	1.2087
40.0017	0.5	Valid LC-Hit Obj: object that was a subsequent low confidence hit and that followed a valid cue	OBJ	V	0	0.47288	LC-HIT	 2.6431	0	1.2087
42.0023	1.0	Valid Miss Cue: valid cue where following object was a subsequent miss	OBJ	V	1	0.60047	HC-MISS	0.91656	UT	UT
44.0023	0.5	Valid Miss Obj: object that was a subsequent miss and that followed a valid cue	OBJ	V	1	0.60047	HC-MISS	0.91656	UT	UT
46.0012	1.0	Valid Miss Cue: valid cue where following object was a subsequent miss	OBJ	V	1	0.66783	LC-MISS	 1.4112	UT	UT
48.0012	0.5	Valid Miss Obj: object that was a subsequent miss and that followed a valid cue	OBJ	V	1	0.66783	LC-MISS	 1.4112	UT	UT
50.0025	1.0	Valid Other Greeble Cue: valid cue where following stimulus was an untested or no response greeble	GRE	V	1	0.84296	UT	UT	UT	UT
56.0025	0.5	Valid Other Greeble: stimulus that was an untested or no response greeble and that followed a valid cue	GRE	V	1	0.84296	UT	UT	UT	UT
58.0019	1.0	Invalid Other Greeble Cue: invalid cue where following stimulus was an untested or no response greeble	GRE	NV	1	 1.0234	UT	UT	UT	UT
60.0019	0.5	Invalid Other Greeble: stimulus that was an untested or no response greeble and that followed a invalid cue	GRE	NV	1	 1.0234	UT	UT	UT	UT
62.0015	1.0	Valid Miss Cue: valid cue where following object was a subsequent miss	OBJ	V	1	0.65804	LC-MISS	0.92485	UT	UT
64.0015	0.5	Valid Miss Obj: object that was a subsequent miss and that followed a valid cue	OBJ	V	1	0.65804	LC-MISS	0.92485	UT	UT
66.0014	1.0	Valid Other Greeble Cue: valid cue where following stimulus was an untested or no response greeble	GRE	V	1	0.82742	UT	UT	UT	UT
72.0014	0.5	Valid Other Greeble: stimulus that was an untested or no response greeble and that followed a valid cue	GRE	V	1	0.82742	UT	UT	UT	UT
76.0016	1.0	Valid Miss Cue: valid cue where following object was a subsequent miss	OBJ	V	1	 0.7854	HC-MISS	  1.174	UT	UT
80.0016	0.5	Valid Miss Obj: object that was a subsequent miss and that followed a valid cue	OBJ	V	1	 0.7854	HC-MISS	  1.174	UT	UT
86.0016	1.0	Valid Miss Cue: valid cue where following object was a subsequent miss	OBJ	V	1	0.64261	LC-MISS	 2.9558	UT	UT
88.0016	0.5	Valid Miss Obj: object that was a subsequent miss and that followed a valid cue	OBJ	V	1	0.64261	LC-MISS	 2.9558	UT	UT
90.0018	1.0	Valid Miss Cue: valid cue where following object was a subsequent miss	OBJ	V	1	0.68382	HC-MISS	 1.4042	UT	UT
94.0018	0.5	Valid Miss Obj: object that was a subsequent miss and that followed a valid cue	OBJ	V	1	0.68382	HC-MISS	 1.4042	UT	UT
96.0019	1.0	Valid Miss Cue: valid cue where following object was a subsequent miss	OBJ	V	1	0.67014	LC-MISS	 0.9497	UT	UT
100.0019	0.5	Valid Miss Obj: object that was a subsequent miss and that followed a valid cue	OBJ	V	1	0.67014	LC-MISS	 0.9497	UT	UT
102.0013	1.0	Valid Other Greeble Cue: valid cue where following stimulus was an untested or no response greeble	GRE	V	1	 0.7727	UT	UT	UT	UT
108.0013	0.5	Valid Other Greeble: stimulus that was an untested or no response greeble and that followed a valid cue	GRE	V	1	 0.7727	UT	UT	UT	UT
110.0017	1.0	Valid LC-Hit Cue: valid cue where following object was a subsequent low confidence hit	OBJ	V	1	0.66373	LC-HIT	 3.0482	0	0.77403
114.0017	0.5	Valid LC-Hit Obj: object that was a subsequent low confidence hit and that followed a valid cue	OBJ	V	1	0.66373	LC-HIT	 3.0482	0	0.77403
118.0016	1.0	Invalid Other Greeble Cue: invalid cue where following stimulus was an untested or no response greeble	GRE	NV	NR	NR	UT	UT	UT	UT
120.0016	0.5	Invalid Other Greeble: stimulus that was an untested or no response greeble and that followed a invalid cue	GRE	NV	NR	NR	UT	UT	UT	UT
122.0029	1.0	Valid Miss Cue: valid cue where following object was a subsequent miss	OBJ	V	1	 1.0977	LC-MISS	 1.4527	UT	UT
126.0029	0.5	Valid Miss Obj: object that was a subsequent miss and that followed a valid cue	OBJ	V	1	 1.0977	LC-MISS	 1.4527	UT	UT
130.0023	1.0	Valid HC-Hit Cue: valid cue where following object was a subsequent high confidence hit	OBJ	V	1	0.69231	HC-HIT	 1.7109	0	2.0197
132.0023	0.5	Valid HC-Hit Obj: object that was a subsequent high confidence hit and that followed a valid cue	OBJ	V	1	0.69231	HC-HIT	 1.7109	0	2.0197
136.0017	1.0	Valid HC-Hit Cue: valid cue where following object was a subsequent high confidence hit	OBJ	V	1	0.64855	HC-HIT	  1.211	1	2.5604
142.0017	0.5	Valid HC-Hit Obj: object that was a subsequent high confidence hit and that followed a valid cue	OBJ	V	1	0.64855	HC-HIT	  1.211	1	2.5604
144.0015	1.0	Valid Other Greeble Cue: valid cue where following stimulus was an untested or no response greeble	GRE	V	1	0.81963	UT	UT	UT	UT
148.0015	0.5	Valid Other Greeble: stimulus that was an untested or no response greeble and that followed a valid cue	GRE	V	1	0.81963	UT	UT	UT	UT
150.0019	1.0	Valid LC-Hit Cue: valid cue where following object was a subsequent low confidence hit	OBJ	V	1	0.57255	LC-HIT	 2.4519	0	0.89846
154.0019	0.5	Valid LC-Hit Obj: object that was a subsequent low confidence hit and that followed a valid cue	OBJ	V	1	0.57255	LC-HIT	 2.4519	0	0.89846
156.0015	1.0	Invalid Miss Cue: invalid cue where following object was a subsequent miss	OBJ	NV	1	0.63778	LC-MISS	 1.1218	UT	UT
160.0015	0.5	Invalid Miss Obj: object that was a subsequent miss and that followed an invalid cue	OBJ	NV	1	0.63778	LC-MISS	 1.1218	UT	UT
162.0011	1.0	Valid Miss Cue: valid cue where following object was a subsequent miss	OBJ	V	1	0.78141	LC-MISS	0.68705	UT	UT
168.0011	0.5	Valid Miss Obj: object that was a subsequent miss and that followed a valid cue	OBJ	V	1	0.78141	LC-MISS	0.68705	UT	UT
172.0012	1.0	Valid LC-Hit Cue: valid cue where following object was a subsequent low confidence hit	OBJ	V	1	0.59631	LC-HIT	 2.8521	0	0.60759
178.0012	0.5	Valid LC-Hit Obj: object that was a subsequent low confidence hit and that followed a valid cue	OBJ	V	1	0.59631	LC-HIT	 2.8521	0	0.60759
180.0014	1.0	Valid Other Greeble Cue: valid cue where following stimulus was an untested or no response greeble	GRE	V	1	0.80016	UT	UT	UT	UT
182.0014	0.5	Valid Other Greeble: stimulus that was an untested or no response greeble and that followed a valid cue	GRE	V	1	0.80016	UT	UT	UT	UT
184.0018	1.0	Valid Other Greeble Cue: valid cue where following stimulus was an untested or no response greeble	GRE	V	1	 1.0034	UT	UT	UT	UT
186.0018	0.5	Valid Other Greeble: stimulus that was an untested or no response greeble and that followed a valid cue	GRE	V	1	 1.0034	UT	UT	UT	UT
188.0014	1.0	Invalid Miss Cue: invalid cue where following object was a subsequent miss	OBJ	NV	1	0.83641	LC-MISS	0.78531	UT	UT
192.0014	0.5	Invalid Miss Obj: object that was a subsequent miss and that followed an invalid cue	OBJ	NV	1	0.83641	LC-MISS	0.78531	UT	UT
196.0014	1.0	Valid Other Greeble Cue: valid cue where following stimulus was an untested or no response greeble	GRE	V	1	0.81079	UT	UT	UT	UT
202.0014	0.5	Valid Other Greeble: stimulus that was an untested or no response greeble and that followed a valid cue	GRE	V	1	0.81079	UT	UT	UT	UT
204.00099999999998	1.0	Valid Miss Cue: valid cue where following object was a subsequent miss	OBJ	V	1	0.79863	LC-MISS	 1.2337	UT	UT
206.00099999999998	0.5	Valid Miss Obj: object that was a subsequent miss and that followed a valid cue	OBJ	V	1	0.79863	LC-MISS	 1.2337	UT	UT
208.0015	1.0	Invalid Miss Cue: invalid cue where following object was a subsequent miss	OBJ	NV	1	0.75311	LC-MISS	 1.2292	UT	UT
210.0015	0.5	Invalid Miss Obj: object that was a subsequent miss and that followed an invalid cue	OBJ	NV	1	0.75311	LC-MISS	 1.2292	UT	UT
212.0013	1.0	Valid Miss Cue: valid cue where following object was a subsequent miss	OBJ	V	1	0.80131	LC-MISS	 1.4214	UT	UT
218.0013	0.5	Valid Miss Obj: object that was a subsequent miss and that followed a valid cue	OBJ	V	1	0.80131	LC-MISS	 1.4214	UT	UT
220.0012	1.0	Valid Other Greeble Cue: valid cue where following stimulus was an untested or no response greeble	GRE	V	1	0.86715	UT	UT	UT	UT
224.0012	0.5	Valid Other Greeble: stimulus that was an untested or no response greeble and that followed a valid cue	GRE	V	1	0.86715	UT	UT	UT	UT
226.0008	1.0	Valid HC-Hit Cue: valid cue where following object was a subsequent high confidence hit	OBJ	V	1	0.87626	HC-HIT	 1.5628	1	2.6105
230.0008	0.5	Valid HC-Hit Obj: object that was a subsequent high confidence hit and that followed a valid cue	OBJ	V	1	0.87626	HC-HIT	 1.5628	1	2.6105
232.0015	1.0	Valid Other Obj Cue: valid cue where following stimulus was an untested or no response object	OBJ	V	1	  0.648	UT	UT	UT	UT
234.0015	0.5	Valid Other Obj: stimulus that was an untested or no response object and that followed a valid cue	OBJ	V	1	  0.648	UT	UT	UT	UT
236.0009	1.0	Invalid HC-Hit Cue: invalid cue where following object was a subsequent high confidence hit	OBJ	NV	1	0.57559	HC-HIT	 1.2283	1	1.4125
242.0009	0.5	Invalid HC-Hit Obj: object that was a subsequent high confidence hit and that followed an invalid cue	OBJ	NV	1	0.57559	HC-HIT	 1.2283	1	1.4125
246.002	1.0	Valid LC-Hit Cue: valid cue where following object was a subsequent low confidence hit	OBJ	V	1	0.59881	LC-HIT	 3.6852	0	0.37937
252.002	0.5	Valid LC-Hit Obj: object that was a subsequent low confidence hit and that followed a valid cue	OBJ	V	1	0.59881	LC-HIT	 3.6852	0	0.37937
254.0013	1.0	Valid Other Obj Cue: valid cue where following stimulus was an untested or no response object	OBJ	V	1	0.67281	UT	UT	UT	UT
256.0013	0.5	Valid Other Obj: stimulus that was an untested or no response object and that followed a valid cue	OBJ	V	1	0.67281	UT	UT	UT	UT
258.002	1.0	Valid Other Greeble Cue: valid cue where following stimulus was an untested or no response greeble	GRE	V	1	0.67287	UT	UT	UT	UT
264.002	0.5	Valid Other Greeble: stimulus that was an untested or no response greeble and that followed a valid cue	GRE	V	1	0.67287	UT	UT	UT	UT
266.0018	1.0	Valid Other Greeble Cue: valid cue where following stimulus was an untested or no response greeble	GRE	V	1	 1.0366	UT	UT	UT	UT
270.0018	0.5	Valid Other Greeble: stimulus that was an untested or no response greeble and that followed a valid cue	GRE	V	1	 1.0366	UT	UT	UT	UT
272.0017	1.0	Valid Other Obj Cue: valid cue where following stimulus was an untested or no response object	OBJ	V	1	 1.3803	UT	UT	UT	UT
276.0017	0.5	Valid Other Obj: stimulus that was an untested or no response object and that followed a valid cue	OBJ	V	1	 1.3803	UT	UT	UT	UT
278.0007	1.0	Invalid Miss Cue: invalid cue where following object was a subsequent miss	OBJ	NV	1	0.73533	LC-MISS	 1.0011	UT	UT
280.0007	0.5	Invalid Miss Obj: object that was a subsequent miss and that followed an invalid cue	OBJ	NV	1	0.73533	LC-MISS	 1.0011	UT	UT
286.0017	1.0	Valid Miss Cue: valid cue where following object was a subsequent miss	OBJ	V	1	0.71057	LC-MISS	 1.0107	UT	UT
290.0017	0.5	Valid Miss Obj: object that was a subsequent miss and that followed a valid cue	OBJ	V	1	0.71057	LC-MISS	 1.0107	UT	UT
292.0014	1.0	Valid Other Obj Cue: valid cue where following stimulus was an untested or no response object	OBJ	V	1	0.72052	UT	UT	UT	UT
296.0014	0.5	Valid Other Obj: stimulus that was an untested or no response object and that followed a valid cue	OBJ	V	1	0.72052	UT	UT	UT	UT
298.0015	1.0	Valid Miss Cue: valid cue where following object was a subsequent miss	OBJ	V	1	0.75535	LC-MISS	 1.3438	UT	UT
300.0015	0.5	Valid Miss Obj: object that was a subsequent miss and that followed a valid cue	OBJ	V	1	0.75535	LC-MISS	 1.3438	UT	UT
304.0011	1.0	Invalid Miss Cue: invalid cue where following object was a subsequent miss	OBJ	NV	1	0.67349	LC-MISS	 1.3996	UT	UT
310.0011	0.5	Invalid Miss Obj: object that was a subsequent miss and that followed an invalid cue	OBJ	NV	1	0.67349	LC-MISS	 1.3996	UT	UT
312.0014	1.0	Valid Miss Cue: valid cue where following object was a subsequent miss	OBJ	V	1	0.62872	LC-MISS	 1.9452	UT	UT
314.0014	0.5	Valid Miss Obj: object that was a subsequent miss and that followed a valid cue	OBJ	V	1	0.62872	LC-MISS	 1.9452	UT	UT
316.0011	1.0	Valid Miss Cue: valid cue where following object was a subsequent miss	OBJ	V	1	0.57962	LC-MISS	  1.477	UT	UT
322.0011	0.5	Valid Miss Obj: object that was a subsequent miss and that followed a valid cue	OBJ	V	1	0.57962	LC-MISS	  1.477	UT	UT
324.0015	1.0	Valid Other Greeble Cue: valid cue where following stimulus was an untested or no response greeble	GRE	V	1	0.74807	UT	UT	UT	UT
330.0015	0.5	Valid Other Greeble: stimulus that was an untested or no response greeble and that followed a valid cue	GRE	V	1	0.74807	UT	UT	UT	UT
332.0013	1.0	Valid Other Greeble Cue: valid cue where following stimulus was an untested or no response greeble	GRE	V	1	0.76262	UT	UT	UT	UT
338.0013	0.5	Valid Other Greeble: stimulus that was an untested or no response greeble and that followed a valid cue	GRE	V	1	0.76262	UT	UT	UT	UT
340.0013	1.0	Valid Miss Cue: valid cue where following object was a subsequent miss	OBJ	V	1	0.63536	LC-MISS	 1.5145	UT	UT
346.0013	0.5	Valid Miss Obj: object that was a subsequent miss and that followed a valid cue	OBJ	V	1	0.63536	LC-MISS	 1.5145	UT	UT
348.0012	1.0	Invalid Miss Cue: invalid cue where following object was a subsequent miss	OBJ	NV	1	 1.1032	LC-MISS	 1.2202	UT	UT
350.0012	0.5	Invalid Miss Obj: object that was a subsequent miss and that followed an invalid cue	OBJ	NV	1	 1.1032	LC-MISS	 1.2202	UT	UT
354.0009	1.0	Valid HC-Hit Cue: valid cue where following object was a subsequent high confidence hit	OBJ	V	1	0.61387	HC-HIT	 2.3495	1	2.4489
358.0009	0.5	Valid HC-Hit Obj: object that was a subsequent high confidence hit and that followed a valid cue	OBJ	V	1	0.61387	HC-HIT	 2.3495	1	2.4489
360.0014	1.0	Valid Miss Cue: valid cue where following object was a subsequent miss	OBJ	V	1	 1.0883	LC-MISS	  1.069	UT	UT
364.0014	0.5	Valid Miss Obj: object that was a subsequent miss and that followed a valid cue	OBJ	V	1	 1.0883	LC-MISS	  1.069	UT	UT
