onset	duration	trial_type	Response	Stimulus	RT
4.787	0.2	auditory standard stimulus presentation	n/a	n/a	n/a
7.797999999999999	0.2	auditory standard stimulus presentation	n/a	n/a	n/a
10.843	0.2	auditory oddball stimulus presentation	1.0	target	n/a
10.843	0.36700000000000005	behavioral response time following auditory oddball stimulus onset	1.0	target	n/a
13.077	0.45399999999999996	behavioral response time following auditory oddball stimulus onset	1.0	target	n/a
13.077	0.2	auditory oddball stimulus presentation	1.0	target	n/a
15.311	0.2	auditory oddball stimulus presentation	1.0	target	n/a
15.311	0.475	behavioral response time following auditory oddball stimulus onset	1.0	target	n/a
17.346	0.2	auditory oddball stimulus presentation	1.0	target	n/a
17.346	0.391	behavioral response time following auditory oddball stimulus onset	1.0	target	n/a
20.39	0.2	auditory standard stimulus presentation	0.0	standard	n/a
22.641	0.2	auditory standard stimulus presentation	0.0	standard	n/a
25.271	0.2	auditory standard stimulus presentation	0.0	standard	n/a
28.316999999999997	0.2	auditory standard stimulus presentation	0.0	standard	n/a
30.351	0.2	auditory standard stimulus presentation	0.0	standard	n/a
33.18	0.2	auditory standard stimulus presentation	0.0	standard	n/a
36.226	0.381	behavioral response time following auditory oddball stimulus onset	1.0	target	n/a
36.226	0.2	auditory oddball stimulus presentation	1.0	target	n/a
39.271	0.385	behavioral response time following auditory oddball stimulus onset	1.0	target	n/a
39.271	0.2	auditory oddball stimulus presentation	1.0	target	n/a
41.9	0.2	auditory standard stimulus presentation	0.0	standard	n/a
43.93600000000001	0.2	auditory standard stimulus presentation	0.0	standard	n/a
46.169	0.2	auditory standard stimulus presentation	0.0	standard	n/a
49.196999999999996	0.43200000000000005	behavioral response time following auditory oddball stimulus onset	1.0	target	n/a
49.196999999999996	0.2	auditory oddball stimulus presentation	1.0	target	n/a
51.631	0.2	auditory standard stimulus presentation	0.0	standard	n/a
54.674	0.2	auditory standard stimulus presentation	0.0	standard	n/a
56.909	0.2	auditory standard stimulus presentation	0.0	standard	n/a
59.937	0.2	auditory standard stimulus presentation	0.0	standard	n/a
62.766000000000005	0.2	auditory standard stimulus presentation	0.0	standard	n/a
65.19800000000001	0.2	auditory standard stimulus presentation	0.0	standard	n/a
68.045	0.2	auditory standard stimulus presentation	0.0	standard	n/a
70.278	0.379	behavioral response time following auditory oddball stimulus onset	1.0	target	n/a
70.278	0.2	auditory oddball stimulus presentation	1.0	target	n/a
72.314	0.2	auditory standard stimulus presentation	0.0	standard	n/a
74.547	n/a	n/a	1.0	target	n/a
76.979	0.2	auditory standard stimulus presentation	0.0	standard	n/a
80.007	0.2	auditory standard stimulus presentation	0.0	standard	n/a
82.63799999999999	0.2	auditory standard stimulus presentation	0.0	standard	n/a
85.07	0.2	auditory standard stimulus presentation	0.0	standard	n/a
88.115	0.38799999999999996	behavioral response time following auditory oddball stimulus onset	1.0	target	n/a
88.115	0.2	auditory oddball stimulus presentation	1.0	target	n/a
90.34899999999999	0.2	auditory standard stimulus presentation	0.0	standard	n/a
92.4	0.2	auditory standard stimulus presentation	0.0	standard	n/a
94.65	0.2	auditory standard stimulus presentation	0.0	standard	n/a
96.902	0.2	auditory standard stimulus presentation	0.0	standard	n/a
99.74799999999999	0.2	auditory standard stimulus presentation	0.0	standard	n/a
101.78299999999999	0.2	auditory standard stimulus presentation	0.0	standard	n/a
104.811	0.2	auditory standard stimulus presentation	0.0	standard	n/a
106.845	0.2	auditory standard stimulus presentation	0.0	standard	n/a
109.27799999999999	0.2	auditory standard stimulus presentation	0.0	standard	n/a
112.306	0.2	auditory standard stimulus presentation	0.0	standard	n/a
115.35	0.2	auditory standard stimulus presentation	0.0	standard	n/a
118.396	0.2	auditory standard stimulus presentation	0.0	standard	n/a
121.44	0.2	auditory standard stimulus presentation	0.0	standard	n/a
123.475	0.2	auditory standard stimulus presentation	0.0	standard	n/a
126.52	0.2	auditory standard stimulus presentation	0.0	standard	n/a
129.548	0.2	auditory standard stimulus presentation	0.0	standard	n/a
131.997	0.2	auditory standard stimulus presentation	0.0	standard	n/a
135.042	0.2	auditory standard stimulus presentation	0.0	standard	n/a
137.059	0.2	auditory standard stimulus presentation	0.0	standard	n/a
139.49200000000002	0.2	auditory standard stimulus presentation	0.0	standard	n/a
142.52	0.446	behavioral response time following auditory oddball stimulus onset	1.0	target	n/a
142.52	0.2	auditory oddball stimulus presentation	1.0	target	n/a
145.366	0.2	auditory standard stimulus presentation	0.0	standard	n/a
147.798	0.2	auditory standard stimulus presentation	0.0	standard	n/a
150.428	0.385	behavioral response time following auditory oddball stimulus onset	1.0	target	n/a
150.428	0.2	auditory oddball stimulus presentation	1.0	target	n/a
153.489	0.2	auditory standard stimulus presentation	0.0	standard	n/a
156.518	0.2	auditory standard stimulus presentation	0.0	standard	n/a
158.967	0.2	auditory standard stimulus presentation	0.0	standard	n/a
161.614	0.2	auditory standard stimulus presentation	0.0	standard	n/a
164.046	0.391	behavioral response time following auditory oddball stimulus onset	1.0	target	n/a
164.046	0.2	auditory oddball stimulus presentation	1.0	target	n/a
167.09099999999998	0.385	behavioral response time following auditory oddball stimulus onset	1.0	target	n/a
167.09099999999998	0.2	auditory oddball stimulus presentation	1.0	target	n/a
169.92	0.2	auditory standard stimulus presentation	0.0	standard	n/a
172.767	0.371	behavioral response time following auditory oddball stimulus onset	1.0	target	n/a
172.767	0.2	auditory oddball stimulus presentation	1.0	target	n/a
175.199	0.2	auditory standard stimulus presentation	0.0	standard	n/a
177.632	0.2	auditory standard stimulus presentation	0.0	standard	n/a
180.477	0.344	behavioral response time following auditory oddball stimulus onset	1.0	target	n/a
180.477	0.2	auditory oddball stimulus presentation	1.0	target	n/a
182.495	0.2	auditory standard stimulus presentation	0.0	standard	n/a
184.729	0.387	behavioral response time following auditory oddball stimulus onset	1.0	target	n/a
184.729	0.2	auditory oddball stimulus presentation	1.0	target	n/a
186.963	0.2	auditory standard stimulus presentation	0.0	standard	n/a
190.00799999999998	0.2	auditory standard stimulus presentation	0.0	standard	n/a
192.639	0.2	auditory oddball stimulus presentation	1.0	target	n/a
192.639	0.363	behavioral response time following auditory oddball stimulus onset	1.0	target	n/a
195.485	0.2	auditory standard stimulus presentation	0.0	standard	n/a
197.519	0.2	auditory standard stimulus presentation	0.0	standard	n/a
200.35	0.436	behavioral response time following auditory oddball stimulus onset	1.0	target	n/a
200.35	0.2	auditory oddball stimulus presentation	1.0	target	n/a
202.59900000000002	0.2	auditory standard stimulus presentation	0.0	standard	n/a
205.23	0.2	auditory standard stimulus presentation	0.0	standard	n/a
207.877	0.2	auditory standard stimulus presentation	0.0	standard	n/a
210.31	0.2	auditory standard stimulus presentation	0.0	standard	n/a
212.975	0.2	auditory standard stimulus presentation	0.0	standard	n/a
215.225	0.2	auditory standard stimulus presentation	0.0	standard	n/a
217.673	0.2	auditory standard stimulus presentation	0.0	standard	n/a
220.519	0.2	auditory oddball stimulus presentation	1.0	target	n/a
220.519	0.451	behavioral response time following auditory oddball stimulus onset	1.0	target	n/a
223.56400000000002	0.2	auditory standard stimulus presentation	0.0	standard	n/a
225.99599999999998	0.2	auditory oddball stimulus presentation	1.0	target	n/a
225.99599999999998	0.395	behavioral response time following auditory oddball stimulus onset	1.0	target	n/a
228.825	0.2	auditory standard stimulus presentation	0.0	standard	n/a
231.25799999999998	0.2	auditory standard stimulus presentation	0.0	standard	n/a
233.49099999999999	0.2	auditory standard stimulus presentation	0.0	standard	n/a
235.74200000000002	0.405	behavioral response time following auditory oddball stimulus onset	1.0	target	n/a
235.74200000000002	0.2	auditory oddball stimulus presentation	1.0	target	n/a
238.78599999999997	0.2	auditory standard stimulus presentation	0.0	standard	n/a
240.838	0.2	auditory standard stimulus presentation	0.0	standard	n/a
243.668	0.2	auditory standard stimulus presentation	0.0	standard	n/a
245.90200000000002	0.2	auditory standard stimulus presentation	0.0	standard	n/a
248.334	0.2	auditory standard stimulus presentation	0.0	standard	n/a
250.386	0.2	auditory standard stimulus presentation	0.0	standard	n/a
253.033	0.2	auditory standard stimulus presentation	0.0	standard	n/a
255.084	0.2	auditory standard stimulus presentation	0.0	standard	n/a
257.931	0.2	auditory standard stimulus presentation	0.0	standard	n/a
259.966	0.2	auditory standard stimulus presentation	0.0	standard	n/a
263.01099999999997	0.2	auditory standard stimulus presentation	0.0	standard	n/a
265.245	0.2	auditory standard stimulus presentation	0.0	standard	n/a
268.27299999999997	0.2	auditory standard stimulus presentation	0.0	standard	n/a
270.721	0.2	auditory standard stimulus presentation	0.0	standard	n/a
272.74	0.2	auditory standard stimulus presentation	0.0	standard	n/a
275.784	0.426	behavioral response time following auditory oddball stimulus onset	1.0	target	n/a
275.784	0.2	auditory oddball stimulus presentation	1.0	target	n/a
277.80400000000003	0.2	auditory oddball stimulus presentation	1.0	target	n/a
277.80400000000003	0.387	behavioral response time following auditory oddball stimulus onset	1.0	target	n/a
280.848	0.2	auditory oddball stimulus presentation	1.0	target	n/a
280.848	0.43	behavioral response time following auditory oddball stimulus onset	1.0	target	n/a
283.893	0.2	auditory standard stimulus presentation	0.0	standard	n/a
285.943	0.2	auditory standard stimulus presentation	0.0	standard	n/a
287.962	0.2	auditory standard stimulus presentation	0.0	standard	n/a
290.395	0.2	auditory standard stimulus presentation	0.0	standard	n/a
293.423	0.2	auditory standard stimulus presentation	0.0	standard	n/a
296.12	0.2	auditory standard stimulus presentation	0.0	standard	n/a
298.949	0.2	auditory standard stimulus presentation	0.0	standard	n/a
301.001	0.2	auditory standard stimulus presentation	0.0	standard	n/a
303.848	0.2	auditory standard stimulus presentation	0.0	standard	n/a
305.883	0.2	auditory standard stimulus presentation	0.0	standard	n/a
308.927	0.2	auditory standard stimulus presentation	0.0	standard	n/a
311.36	0.2	auditory standard stimulus presentation	0.0	standard	n/a
313.791	0.2	auditory standard stimulus presentation	0.0	standard	n/a
316.439	0.2	auditory standard stimulus presentation	0.0	standard	n/a
318.475	0.2	auditory standard stimulus presentation	0.0	standard	n/a
320.923	0.2	auditory standard stimulus presentation	0.0	standard	n/a
323.156	0.2	auditory standard stimulus presentation	0.0	standard	n/a
n/a	n/a	n/a	4.787	0	standard
n/a	n/a	n/a	7.797999999999999	0	standard
