onset	duration	trial_number	event_type	executed_movement	correct_movement	shown_stimulus	included_trial	reason_for_exclusion
9.97999999999593	25.02	1	stimulus	n/a	n/a	white X	0	test trial
35	9.50849130000279	1	stimulus	n/a	n/a	red X	0	test trial
36.2700000000041	0	1	foot step	2	2	n/a	0	test trial
36.9400000000023	0	1	foot step	1	1	n/a	0	test trial
37.6000000000058	0	1	foot step	2	2	n/a	0	test trial
38.2899999999936	0	1	foot step	3	3	n/a	0	test trial
39.0299999999988	0	1	foot step	2	2	n/a	0	test trial
39.6999999999971	0	1	foot step	1	1	n/a	0	test trial
40.3399999999965	0	1	foot step	3	3	n/a	0	test trial
41.0500000000029	0	1	foot step	2	2	n/a	0	test trial
41.7200000000012	0	1	foot step	4	4	n/a	0	test trial
42.3500000000058	0	1	foot step	2	2	n/a	0	test trial
42.9799999999959	0	1	foot step	4	4	n/a	0	test trial
43.5800000000017	0	1	foot step	1	1	n/a	0	test trial
44.5	5	1	stimulus	n/a	n/a	white X	0	test trial
51.1199999999953	24	2	stimulus	n/a	n/a	white X	1	n/a
75.1236004999955	9.5079143000039	2	stimulus	n/a	n/a	red X	1	n/a
76.4036004999944	0	2	foot step	2	2	n/a	1	n/a
77.0636004999978	0	2	foot step	1	1	n/a	1	n/a
77.713600499992	0	2	foot step	2	2	n/a	1	n/a
78.3436004999967	0	2	foot step	3	3	n/a	1	n/a
79.033600499999	0	2	foot step	2	2	n/a	1	n/a
79.6736004999984	0	2	foot step	1	1	n/a	1	n/a
80.283600499999	0	2	foot step	3	3	n/a	1	n/a
81.0036005000002	0	2	foot step	2	2	n/a	1	n/a
81.6536004999944	0	2	foot step	4	4	n/a	1	n/a
82.3236004999926	0	2	foot step	2	2	n/a	1	n/a
82.9536004999973	0	2	foot step	4	4	n/a	1	n/a
83.5436004999938	0	2	foot step	1	1	n/a	1	n/a
84.6399999999994	5	2	stimulus	n/a	n/a	white X	1	n/a
90.820000000007	22	3	stimulus	n/a	n/a	white X	1	n/a
112.828148700006	9.50734029999876	3	stimulus	n/a	n/a	red X	1	n/a
114.198148700001	0	3	foot step	2	2	n/a	1	n/a
114.908148700008	0	3	foot step	1	1	n/a	1	n/a
115.588148700001	0	3	foot step	2	2	n/a	1	n/a
116.268148700008	0	3	foot step	3	3	n/a	1	n/a
116.948148700001	0	3	foot step	2	2	n/a	1	n/a
117.638148700004	0	3	foot step	1	1	n/a	1	n/a
118.328148700006	0	3	foot step	3	3	n/a	1	n/a
119.108148700005	0	3	foot step	2	2	n/a	1	n/a
119.898148700013	0	3	foot step	4	4	n/a	1	n/a
120.628148700009	0	3	foot step	2	2	n/a	1	n/a
121.288148700012	0	3	foot step	4	4	n/a	1	n/a
121.938148700006	0	3	foot step	1	1	n/a	1	n/a
122.339999999997	5	3	stimulus	n/a	n/a	white X	1	n/a
128.199999999997	23.02	4	stimulus	n/a	n/a	white X	1	n/a
151.217433900005	9.50809109999682	4	stimulus	n/a	n/a	red X	1	n/a
152.45743390001	0	4	foot step	2	2	n/a	1	n/a
153.187433900006	0	4	foot step	1	1	n/a	1	n/a
153.877433900008	0	4	foot step	2	2	n/a	1	n/a
154.547433900007	0	4	foot step	3	3	n/a	1	n/a
155.297433900007	0	4	foot step	2	2	n/a	1	n/a
155.9774339	0	4	foot step	1	1	n/a	1	n/a
156.547433900007	0	4	foot step	3	3	n/a	1	n/a
157.357433900004	0	4	foot step	2	2	n/a	1	n/a
158.107433900004	0	4	foot step	4	4	n/a	1	n/a
158.857433900004	0	4	foot step	2	2	n/a	1	n/a
159.537433900012	0	4	foot step	4	4	n/a	1	n/a
160.2274339	0	4	foot step	1	1	n/a	1	n/a
160.720000000001	5	4	stimulus	n/a	n/a	white X	1	n/a
166.460000000006	21	5	stimulus	n/a	n/a	white X	1	n/a
187.461818700001	9.50885410000046	5	stimulus	n/a	n/a	red X	1	n/a
188.891818699994	0	5	foot step	2	2	n/a	1	n/a
189.591818700006	0	5	foot step	1	1	n/a	1	n/a
190.311818700007	0	5	foot step	2	2	n/a	1	n/a
191.071818700002	0	5	foot step	3	3	n/a	1	n/a
191.831818699997	0	5	foot step	2	2	n/a	1	n/a
192.471818699996	0	5	foot step	1	1	n/a	1	n/a
193.191818699997	0	5	foot step	3	3	n/a	1	n/a
193.931818700003	0	5	foot step	2	2	n/a	1	n/a
194.651818700004	0	5	foot step	4	4	n/a	1	n/a
195.341818700006	0	5	foot step	2	2	n/a	1	n/a
196.031818700008	0	5	foot step	4	4	n/a	1	n/a
196.671818700008	0	5	foot step	1	1	n/a	1	n/a
196.979999999996	5	5	stimulus	n/a	n/a	white X	1	n/a
202.699999999997	25	6	stimulus	n/a	n/a	white X	1	n/a
227.708232899997	9.5075552000053	6	stimulus	n/a	n/a	red X	1	n/a
229.018232899994	0	6	foot step	2	2	n/a	1	n/a
229.678232899998	0	6	foot step	1	1	n/a	1	n/a
230.348232899996	0	6	foot step	2	2	n/a	1	n/a
231.058232900003	0	6	foot step	3	3	n/a	1	n/a
231.768232899994	0	6	foot step	2	2	n/a	1	n/a
232.438232899993	0	6	foot step	1	1	n/a	1	n/a
233.1182329	0	6	foot step	3	3	n/a	1	n/a
233.898232899999	0	6	foot step	2	2	n/a	1	n/a
234.648232899999	0	6	foot step	4	4	n/a	1	n/a
235.318232899997	0	6	foot step	2	2	n/a	1	n/a
236.018232899994	0	6	foot step	4	4	n/a	1	n/a
236.688232899993	0	6	foot step	1	1	n/a	1	n/a
237.220000000001	5	6	stimulus	n/a	n/a	white X	1	n/a
242.740000000005	25	7	stimulus	n/a	n/a	white X	1	n/a
267.738089799997	9.50635540000803	7	stimulus	n/a	n/a	red X	1	n/a
269.218089799993	0	7	foot step	2	2	n/a	1	n/a
269.91808979999	0	7	foot step	1	1	n/a	1	n/a
270.588089800003	0	7	foot step	2	2	n/a	1	n/a
271.2880898	0	7	foot step	3	3	n/a	1	n/a
272.018089799996	0	7	foot step	2	2	n/a	1	n/a
272.6780898	0	7	foot step	1	1	n/a	1	n/a
273.378089799997	0	7	foot step	3	3	n/a	1	n/a
274.128089799997	0	7	foot step	2	2	n/a	1	n/a
274.858089799993	0	7	foot step	4	4	n/a	1	n/a
275.5380898	0	7	foot step	2	2	n/a	1	n/a
276.218089799993	0	7	foot step	4	4	n/a	1	n/a
276.898089800001	0	7	foot step	1	1	n/a	1	n/a
277.240000000005	5	7	stimulus	n/a	n/a	white X	1	n/a
284.380000000005	25.02	8	stimulus	n/a	n/a	white X	1	n/a
309.396448999993	9.50685090001207	8	stimulus	n/a	n/a	red X	1	n/a
310.636448999998	0	8	foot step	2	2	n/a	1	n/a
311.356448999999	0	8	foot step	1	1	n/a	1	n/a
312.036448999992	0	8	foot step	2	2	n/a	1	n/a
312.756448999993	0	8	foot step	3	3	n/a	1	n/a
313.446448999995	0	8	foot step	2	2	n/a	1	n/a
314.106448999999	0	8	foot step	1	1	n/a	1	n/a
314.756448999993	0	8	foot step	3	3	n/a	1	n/a
315.526448999997	0	8	foot step	2	2	n/a	1	n/a
316.226448999994	0	8	foot step	4	4	n/a	1	n/a
316.936448999986	0	8	foot step	2	2	n/a	1	n/a
317.576448999986	0	8	foot step	4	4	n/a	1	n/a
318.216449	0	8	foot step	1	1	n/a	1	n/a
318.899999999994	5	8	stimulus	n/a	n/a	white X	1	n/a
325.059999999998	22.02	9	stimulus	n/a	n/a	white X	1	n/a
347.078637900006	9.50801179998962	9	stimulus	n/a	n/a	red X	1	n/a
348.298637900007	0	9	foot step	2	2	n/a	1	n/a
348.95863790001	0	9	foot step	1	1	n/a	1	n/a
349.638637900003	0	9	foot step	2	2	n/a	1	n/a
350.378637900008	0	9	foot step	3	3	n/a	1	n/a
351.09863790001	0	9	foot step	2	2	n/a	1	n/a
351.778637900003	0	9	foot step	1	1	n/a	1	n/a
352.438637900006	0	9	foot step	3	3	n/a	1	n/a
353.168637900002	0	9	foot step	2	2	n/a	1	n/a
353.828637900006	0	9	foot step	4	4	n/a	1	n/a
354.508637899999	0	9	foot step	2	2	n/a	1	n/a
355.20863790001	0	9	foot step	4	4	n/a	1	n/a
355.868637899999	0	9	foot step	1	1	n/a	1	n/a
356.580000000002	5	9	stimulus	n/a	n/a	white X	1	n/a
362.520000000004	23.02	10	stimulus	n/a	n/a	white X	1	n/a
385.5344511	9.50858589999552	10	stimulus	n/a	n/a	red X	1	n/a
386.724451100003	0	10	foot step	2	2	n/a	1	n/a
387.444451100004	0	10	foot step	1	1	n/a	1	n/a
388.124451099997	0	10	foot step	2	2	n/a	1	n/a
388.804451100004	0	10	foot step	3	3	n/a	1	n/a
389.504451100001	0	10	foot step	2	2	n/a	1	n/a
390.164451100005	0	10	foot step	1	1	n/a	1	n/a
390.854451100007	0	10	foot step	3	3	n/a	1	n/a
391.554451100004	0	10	foot step	2	2	n/a	1	n/a
392.214451099993	0	10	foot step	4	4	n/a	1	n/a
392.9244511	0	10	foot step	2	2	n/a	1	n/a
393.604451100007	0	10	foot step	4	4	n/a	1	n/a
394.294451099995	0	10	foot step	1	1	n/a	1	n/a
395.039999999994	5	10	stimulus	n/a	n/a	white X	1	n/a
400.759999999995	21	11	stimulus	n/a	n/a	white X	1	n/a
421.759646199993	9.5074728000036	11	stimulus	n/a	n/a	red X	1	n/a
422.929646199991	0	11	foot step	2	2	n/a	1	n/a
423.629646199988	0	11	foot step	1	1	n/a	1	n/a
424.289646199992	0	11	foot step	2	2	n/a	1	n/a
424.929646199991	0	11	foot step	3	3	n/a	1	n/a
425.609646199999	0	11	foot step	2	2	n/a	1	n/a
426.309646199996	0	11	foot step	1	1	n/a	1	n/a
426.969646199999	0	11	foot step	3	3	n/a	1	n/a
427.649646199992	0	11	foot step	2	2	n/a	1	n/a
428.289646199992	0	11	foot step	4	4	n/a	1	n/a
428.949646199995	0	11	foot step	2	2	n/a	1	n/a
429.619646199993	0	11	foot step	4	4	n/a	1	n/a
430.249646199998	0	11	foot step	1	1	n/a	1	n/a
431.259999999995	5	11	stimulus	n/a	n/a	white X	1	n/a
