onset	duration	trial_number	event_type	executed_movement	correct_movement	shown_stimulus	reported_gs	correct_gs	included_trial	reason_for_exclusion
9.97999999999593	25.02	1	stimulus	n/a	n/a	white X	n/a	n/a	0	test trial
35	10.9087616999896	1	stimulus	n/a	n/a	LLALOAGO	1	1	0	test trial
35.9891554999922	0	1	finger press	2	2	n/a	n/a	n/a	0	test trial
36.6853282999946	0	1	finger press	1	1	n/a	n/a	n/a	0	test trial
37.3492661999917	0	1	finger press	2	2	n/a	n/a	n/a	0	test trial
37.9013672000001	0	1	finger press	3	3	n/a	n/a	n/a	0	test trial
38.5496185999946	0	1	finger press	2	2	n/a	n/a	n/a	0	test trial
39.1494215999992	0	1	finger press	1	1	n/a	n/a	n/a	0	test trial
39.7575708999939	0	1	finger press	3	3	n/a	n/a	n/a	0	test trial
40.3255494999903	0	1	finger press	2	2	n/a	n/a	n/a	0	test trial
41.125739199997	0	1	finger press	4	4	n/a	n/a	n/a	0	test trial
41.7736893999972	0	1	finger press	2	2	n/a	n/a	n/a	0	test trial
42.4616010999889	0	1	finger press	4	4	n/a	n/a	n/a	0	test trial
43.1254536999913	0	1	finger press	1	1	n/a	n/a	n/a	0	test trial
45.9400000000023	5	1	stimulus	n/a	n/a	white X	n/a	n/a	0	test trial
81.6000000000058	24	2	stimulus	n/a	n/a	white X	n/a	n/a	1	n/a
105.571610199986	8.68482330000552	2	stimulus	n/a	n/a	LLLOALLO	0	0	1	n/a
106.325471599994	0	2	finger press	2	2	n/a	n/a	n/a	1	n/a
107.037640099996	0	2	finger press	1	1	n/a	n/a	n/a	1	n/a
107.701547399993	0	2	finger press	2	2	n/a	n/a	n/a	1	n/a
108.413453099987	0	2	finger press	3	3	n/a	n/a	n/a	1	n/a
109.093433499991	0	2	finger press	2	2	n/a	n/a	n/a	1	n/a
109.749564399986	0	2	finger press	1	1	n/a	n/a	n/a	1	n/a
110.461435299992	0	2	finger press	3	3	n/a	n/a	n/a	1	n/a
111.101349599994	0	2	finger press	2	2	n/a	n/a	n/a	1	n/a
111.861314399997	0	2	finger press	4	4	n/a	n/a	n/a	1	n/a
112.501989699987	0	2	finger press	2	2	n/a	n/a	n/a	1	n/a
113.149328999993	0	2	finger press	4	4	n/a	n/a	n/a	1	n/a
113.78932679999	0	2	finger press	1	1	n/a	n/a	n/a	1	n/a
114.300000000003	5	2	stimulus	n/a	n/a	white X	n/a	n/a	1	n/a
130.440000000002	24.02	3	stimulus	n/a	n/a	white X	n/a	n/a	1	n/a
154.415318999992	9.96985470000072	3	stimulus	n/a	n/a	ALOGLAGG	3	3	1	n/a
155.181378699999	0	3	finger press	2	2	n/a	n/a	n/a	1	n/a
155.86987319999	0	3	finger press	1	1	n/a	n/a	n/a	1	n/a
156.509179699991	0	3	finger press	2	2	n/a	n/a	n/a	1	n/a
157.149351299988	0	3	finger press	3	3	n/a	n/a	n/a	1	n/a
157.789164499991	0	3	finger press	2	2	n/a	n/a	n/a	1	n/a
158.421461599995	0	3	finger press	1	1	n/a	n/a	n/a	1	n/a
159.069564899997	0	3	finger press	3	3	n/a	n/a	n/a	1	n/a
159.797371599998	0	3	finger press	2	2	n/a	n/a	n/a	1	n/a
160.461666499992	0	3	finger press	4	4	n/a	n/a	n/a	1	n/a
161.173373699989	0	3	finger press	2	2	n/a	n/a	n/a	1	n/a
161.861879499993	0	3	finger press	4	4	n/a	n/a	n/a	1	n/a
162.501413499995	0	3	finger press	1	1	n/a	n/a	n/a	1	n/a
164.419999999998	5	3	stimulus	n/a	n/a	white X	n/a	n/a	1	n/a
177.119999999995	22	4	stimulus	n/a	n/a	white X	n/a	n/a	1	n/a
199.0896641	10.3875079999998	4	stimulus	n/a	n/a	OOAAGLGO	2	2	1	n/a
199.965141599998	0	4	finger press	2	2	n/a	n/a	n/a	1	n/a
200.645059099988	0	4	finger press	1	1	n/a	n/a	n/a	1	n/a
201.261125899997	0	4	finger press	2	2	n/a	n/a	n/a	1	n/a
201.893328099992	0	4	finger press	3	3	n/a	n/a	n/a	1	n/a
202.56538	0	4	finger press	2	2	n/a	n/a	n/a	1	n/a
203.205107899994	0	4	finger press	1	1	n/a	n/a	n/a	1	n/a
203.909269099997	0	4	finger press	3	3	n/a	n/a	n/a	1	n/a
204.565222799996	0	4	finger press	2	2	n/a	n/a	n/a	1	n/a
205.261236099992	0	4	finger press	4	4	n/a	n/a	n/a	1	n/a
205.917328999989	0	4	finger press	2	2	n/a	n/a	n/a	1	n/a
206.557295299994	0	4	finger press	4	4	n/a	n/a	n/a	1	n/a
207.221494999991	0	4	finger press	1	1	n/a	n/a	n/a	1	n/a
209.520000000004	5	4	stimulus	n/a	n/a	white X	n/a	n/a	1	n/a
219.600000000006	21.02	5	stimulus	n/a	n/a	white X	n/a	n/a	1	n/a
240.575659799986	10.2312023000122	5	stimulus	n/a	n/a	AGLGLALG	3	3	1	n/a
241.253061699987	0	5	finger press	2	2	n/a	n/a	n/a	1	n/a
241.925049599988	0	5	finger press	1	1	n/a	n/a	n/a	1	n/a
242.597303899995	0	5	finger press	2	2	n/a	n/a	n/a	1	n/a
243.253162199995	0	5	finger press	3	3	n/a	n/a	n/a	1	n/a
243.877564799986	0	5	finger press	2	2	n/a	n/a	n/a	1	n/a
244.485162699988	0	5	finger press	1	1	n/a	n/a	n/a	1	n/a
245.101695299993	0	5	finger press	3	3	n/a	n/a	n/a	1	n/a
245.741294499996	0	5	finger press	2	2	n/a	n/a	n/a	1	n/a
246.421255099995	0	5	finger press	4	4	n/a	n/a	n/a	1	n/a
247.005190899989	0	5	finger press	2	2	n/a	n/a	n/a	1	n/a
247.645144199996	0	5	finger press	4	4	n/a	n/a	n/a	1	n/a
248.305953999996	0	5	finger press	1	1	n/a	n/a	n/a	1	n/a
250.839999999997	5	5	stimulus	n/a	n/a	white X	n/a	n/a	1	n/a
259.520000000004	24	6	stimulus	n/a	n/a	white X	n/a	n/a	1	n/a
283.490844399988	9.04819870000938	6	stimulus	n/a	n/a	GLLGOAAO	2	2	1	n/a
284.157267799994	0	6	finger press	2	2	n/a	n/a	n/a	1	n/a
284.853141299987	0	6	finger press	1	1	n/a	n/a	n/a	1	n/a
285.501075599997	0	6	finger press	2	2	n/a	n/a	n/a	1	n/a
286.10119419999	0	6	finger press	3	3	n/a	n/a	n/a	1	n/a
286.756983199986	0	6	finger press	2	2	n/a	n/a	n/a	1	n/a
287.381088299997	0	6	finger press	1	1	n/a	n/a	n/a	1	n/a
288.045042999991	0	6	finger press	3	3	n/a	n/a	n/a	1	n/a
288.637017899993	0	6	finger press	2	2	n/a	n/a	n/a	1	n/a
289.325116999986	0	6	finger press	4	4	n/a	n/a	n/a	1	n/a
289.965251899994	0	6	finger press	2	2	n/a	n/a	n/a	1	n/a
290.717129899989	0	6	finger press	4	4	n/a	n/a	n/a	1	n/a
291.40474089999	0	6	finger press	1	1	n/a	n/a	n/a	1	n/a
292.580000000002	5	6	stimulus	n/a	n/a	white X	n/a	n/a	1	n/a
299.460000000006	23	7	stimulus	n/a	n/a	white X	n/a	n/a	1	n/a
322.425233099988	9.45556180000131	7	stimulus	n/a	n/a	GOAOGOOO	2	2	1	n/a
323.189715999993	0	7	finger press	2	2	n/a	n/a	n/a	1	n/a
323.805175499991	0	7	finger press	1	1	n/a	n/a	n/a	1	n/a
324.397073	0	7	finger press	2	2	n/a	n/a	n/a	1	n/a
324.965106299991	0	7	finger press	3	3	n/a	n/a	n/a	1	n/a
325.597321499998	0	7	finger press	2	2	n/a	n/a	n/a	1	n/a
326.229028299989	0	7	finger press	1	1	n/a	n/a	n/a	1	n/a
326.853107099989	0	7	finger press	3	3	n/a	n/a	n/a	1	n/a
327.453124099993	0	7	finger press	2	2	n/a	n/a	n/a	1	n/a
328.189132	0	7	finger press	4	4	n/a	n/a	n/a	1	n/a
328.853268299994	0	7	finger press	2	2	n/a	n/a	n/a	1	n/a
329.525069699986	0	7	finger press	4	4	n/a	n/a	n/a	1	n/a
330.172968399987	0	7	finger press	1	1	n/a	n/a	n/a	1	n/a
331.919999999998	5	7	stimulus	n/a	n/a	white X	n/a	n/a	1	n/a
339.139999999999	22.02	8	stimulus	n/a	n/a	white X	n/a	n/a	1	n/a
361.113120899987	8.77282090000517	8	stimulus	n/a	n/a	GALALLLA	1	1	1	n/a
361.949251999991	0	8	finger press	2	2	n/a	n/a	n/a	1	n/a
362.556889399988	0	8	finger press	1	1	n/a	n/a	n/a	1	n/a
363.165115899988	0	8	finger press	2	2	n/a	n/a	n/a	1	n/a
363.828982899999	0	8	finger press	3	3	n/a	n/a	n/a	1	n/a
364.445151799999	0	8	finger press	2	2	n/a	n/a	n/a	1	n/a
365.124845099999	0	8	finger press	1	1	n/a	n/a	n/a	1	n/a
365.788961899991	0	8	finger press	3	3	n/a	n/a	n/a	1	n/a
366.413078799989	0	8	finger press	2	2	n/a	n/a	n/a	1	n/a
367.181425599993	0	8	finger press	4	4	n/a	n/a	n/a	1	n/a
367.868910999998	0	8	finger press	2	2	n/a	n/a	n/a	1	n/a
368.501059799994	0	8	finger press	4	4	n/a	n/a	n/a	1	n/a
369.188902099995	0	8	finger press	1	1	n/a	n/a	n/a	1	n/a
369.919999999998	5	8	stimulus	n/a	n/a	white X	n/a	n/a	1	n/a
377.940000000002	23	9	stimulus	n/a	n/a	white X	n/a	n/a	1	n/a
400.908939999994	7.87155529999291	9	stimulus	n/a	n/a	LOOALOGO	1	1	1	n/a
401.621587699992	0	9	finger press	2	2	n/a	n/a	n/a	1	n/a
402.2289227	0	9	finger press	1	1	n/a	n/a	n/a	1	n/a
402.820984799997	0	9	finger press	2	2	n/a	n/a	n/a	1	n/a
403.469133699997	0	9	finger press	3	3	n/a	n/a	n/a	1	n/a
404.07695219999	0	9	finger press	2	2	n/a	n/a	n/a	1	n/a
404.716979199991	0	9	finger press	1	1	n/a	n/a	n/a	1	n/a
405.285595099995	0	9	finger press	3	3	n/a	n/a	n/a	1	n/a
405.884837299993	0	9	finger press	2	2	n/a	n/a	n/a	1	n/a
406.572924399996	0	9	finger press	4	4	n/a	n/a	n/a	1	n/a
407.220983899999	0	9	finger press	2	2	n/a	n/a	n/a	1	n/a
407.8929584	0	9	finger press	4	4	n/a	n/a	n/a	1	n/a
408.573120399989	0	9	finger press	1	1	n/a	n/a	n/a	1	n/a
408.820000000007	5	9	stimulus	n/a	n/a	white X	n/a	n/a	1	n/a
417.139999999999	22	10	stimulus	n/a	n/a	white X	n/a	n/a	1	n/a
439.106303099994	9.05137679999461	10	stimulus	n/a	n/a	LGGGLGAL	4	4	1	n/a
439.917074699988	0	10	finger press	2	2	n/a	n/a	n/a	1	n/a
440.564921699988	0	10	finger press	1	1	n/a	n/a	n/a	1	n/a
441.180820299996	0	10	finger press	2	2	n/a	n/a	n/a	1	n/a
441.813153099996	0	10	finger press	3	3	n/a	n/a	n/a	1	n/a
442.4368502	0	10	finger press	2	2	n/a	n/a	n/a	1	n/a
443.052723399989	0	10	finger press	1	1	n/a	n/a	n/a	1	n/a
443.676964299986	0	10	finger press	3	3	n/a	n/a	n/a	1	n/a
444.324779699993	0	10	finger press	2	2	n/a	n/a	n/a	1	n/a
444.916977099987	0	10	finger press	4	4	n/a	n/a	n/a	1	n/a
445.540973199997	0	10	finger press	2	2	n/a	n/a	n/a	1	n/a
446.372765599997	0	10	finger press	4	4	n/a	n/a	n/a	1	n/a
446.997099699991	0	10	finger press	1	1	n/a	n/a	n/a	1	n/a
448.199999999997	5	10	stimulus	n/a	n/a	white X	n/a	n/a	1	n/a
459.860000000001	24.02	11	stimulus	n/a	n/a	white X	n/a	n/a	1	n/a
483.832230499989	9.10938200000965	11	stimulus	n/a	n/a	AGLAAAOO	1	1	1	n/a
484.556822999992	0	11	finger press	2	2	n/a	n/a	n/a	1	n/a
485.196782799991	0	11	finger press	1	1	n/a	n/a	n/a	1	n/a
485.788903799999	0	11	finger press	2	2	n/a	n/a	n/a	1	n/a
486.420817199993	0	11	finger press	3	3	n/a	n/a	n/a	1	n/a
487.053192899999	0	11	finger press	2	2	n/a	n/a	n/a	1	n/a
487.676863099987	0	11	finger press	1	1	n/a	n/a	n/a	1	n/a
488.316742099996	0	11	finger press	3	3	n/a	n/a	n/a	1	n/a
488.900901399989	0	11	finger press	2	2	n/a	n/a	n/a	1	n/a
489.652680199986	0	11	finger press	4	4	n/a	n/a	n/a	1	n/a
490.292459299992	0	11	finger press	2	2	n/a	n/a	n/a	1	n/a
490.941500599991	0	11	finger press	4	4	n/a	n/a	n/a	1	n/a
491.604634599993	0	11	finger press	1	1	n/a	n/a	n/a	1	n/a
492.979999999996	5	11	stimulus	n/a	n/a	white X	n/a	n/a	1	n/a
