onset	duration	trial_number	event_type	executed_movement	correct_movement	shown_stimulus	included_trial	reason_for_exclusion
11.98	23.02	1	stimulus	n/a	n/a	white X	0	test trial
35	9.50664649999999	1	stimulus	n/a	n/a	red X	0	test trial
36.2199999999998	0	1	foot step	2	2	n/a	0	test trial
36.8600000000001	0	1	foot step	1	1	n/a	0	test trial
37.5599999999999	0	1	foot step	2	2	n/a	0	test trial
38.25	0	1	foot step	3	3	n/a	0	test trial
38.9000000000001	0	1	foot step	2	2	n/a	0	test trial
39.4899999999998	0	1	foot step	1	1	n/a	0	test trial
40.1900000000001	0	1	foot step	3	3	n/a	0	test trial
40.9400000000001	0	1	foot step	2	2	n/a	0	test trial
41.5700000000002	0	1	foot step	4	4	n/a	0	test trial
42.23	0	1	foot step	2	2	n/a	0	test trial
42.8600000000001	0	1	foot step	4	4	n/a	0	test trial
43.46	0	1	foot step	1	1	n/a	0	test trial
44.54	5	1	stimulus	n/a	n/a	white X	0	test trial
56.1799999999998	21.02	2	stimulus	n/a	n/a	white X	1	n/a
77.1686334999999	9.5102195999998	2	stimulus	n/a	n/a	red X	1	n/a
79.3886334999997	0	2	foot step	2	2	n/a	1	n/a
80.0586334999998	0	2	foot step	1	1	n/a	1	n/a
80.6986335000001	0	2	foot step	2	2	n/a	1	n/a
81.3786335	0	2	foot step	3	3	n/a	1	n/a
82.0386334999998	0	2	foot step	1	2	n/a	1	n/a
83.0286335000001	0	2	foot step	2	1	n/a	1	n/a
83.6486335	0	2	foot step	1	3	n/a	1	n/a
84.4086334999997	0	2	foot step	3	2	n/a	1	n/a
85.3486334999998	0	2	foot step	2	4	n/a	1	n/a
86.1286335	0	2	foot step	4	2	n/a	1	n/a
86.6999999999998	5	2	stimulus	n/a	n/a	white X	1	n/a
86.7886334999998	0	2	foot step	2	4	n/a	1	n/a
87.3986335	0	2	foot step	4	1	n/a	1	n/a
94.2199999999998	23.02	3	stimulus	n/a	n/a	white X	1	n/a
117.2176552	9.50759639999978	3	stimulus	n/a	n/a	red X	1	n/a
118.3776552	0	3	foot step	2	2	n/a	1	n/a
119.0576552	0	3	foot step	1	1	n/a	1	n/a
119.7376552	0	3	foot step	2	2	n/a	1	n/a
120.4676552	0	3	foot step	3	3	n/a	1	n/a
121.1976552	0	3	foot step	2	2	n/a	1	n/a
121.8276552	0	3	foot step	1	1	n/a	1	n/a
122.4776552	0	3	foot step	3	3	n/a	1	n/a
123.2176552	0	3	foot step	2	2	n/a	1	n/a
123.9076552	0	3	foot step	4	4	n/a	1	n/a
124.6076552	0	3	foot step	2	2	n/a	1	n/a
125.2976552	0	3	foot step	4	4	n/a	1	n/a
125.9276552	0	3	foot step	1	1	n/a	1	n/a
126.76	5	3	stimulus	n/a	n/a	white X	1	n/a
133.34	22.02	4	stimulus	n/a	n/a	white X	1	n/a
155.3293444	9.50858369999969	4	stimulus	n/a	n/a	red X	1	n/a
156.5893444	0	4	foot step	2	2	n/a	1	n/a
157.2093444	0	4	foot step	1	1	n/a	1	n/a
157.8393444	0	4	foot step	2	2	n/a	1	n/a
158.5393444	0	4	foot step	3	3	n/a	1	n/a
159.2193444	0	4	foot step	2	2	n/a	1	n/a
159.8293444	0	4	foot step	1	1	n/a	1	n/a
160.4893444	0	4	foot step	3	3	n/a	1	n/a
161.1793444	0	4	foot step	2	2	n/a	1	n/a
161.8593444	0	4	foot step	4	4	n/a	1	n/a
162.5193444	0	4	foot step	2	2	n/a	1	n/a
163.2193444	0	4	foot step	4	4	n/a	1	n/a
163.8193444	0	4	foot step	1	1	n/a	1	n/a
164.86	5	4	stimulus	n/a	n/a	white X	1	n/a
230.46	22.02	5	stimulus	n/a	n/a	white X	1	n/a
252.4480772	9.50753050000003	5	stimulus	n/a	n/a	red X	1	n/a
253.8880772	0	5	foot step	2	2	n/a	1	n/a
254.5180772	0	5	foot step	1	1	n/a	1	n/a
255.1680772	0	5	foot step	2	2	n/a	1	n/a
255.8080772	0	5	foot step	3	3	n/a	1	n/a
256.5280772	0	5	foot step	2	2	n/a	1	n/a
257.1180772	0	5	foot step	1	1	n/a	1	n/a
257.8080772	0	5	foot step	3	3	n/a	1	n/a
258.4680772	0	5	foot step	2	2	n/a	1	n/a
259.0980772	0	5	foot step	4	4	n/a	1	n/a
259.7580772	0	5	foot step	2	2	n/a	1	n/a
260.3980772	0	5	foot step	4	4	n/a	1	n/a
260.9880772	0	5	foot step	1	1	n/a	1	n/a
261.98	5	5	stimulus	n/a	n/a	white X	1	n/a
272.92	23	6	stimulus	n/a	n/a	white X	1	n/a
295.8936199	9.50805029999992	6	stimulus	n/a	n/a	red X	1	n/a
297.0536199	0	6	foot step	2	2	n/a	1	n/a
297.6936199	0	6	foot step	1	1	n/a	1	n/a
298.3436199	0	6	foot step	2	2	n/a	1	n/a
299.0536199	0	6	foot step	3	3	n/a	1	n/a
299.8536199	0	6	foot step	2	2	n/a	1	n/a
300.4636199	0	6	foot step	1	1	n/a	1	n/a
301.1036199	0	6	foot step	3	3	n/a	1	n/a
301.8436199	0	6	foot step	2	2	n/a	1	n/a
302.4736199	0	6	foot step	4	4	n/a	1	n/a
303.2536199	0	6	foot step	2	2	n/a	1	n/a
303.8636199	0	6	foot step	4	4	n/a	1	n/a
304.4936199	0	6	foot step	1	1	n/a	1	n/a
305.42	5	6	stimulus	n/a	n/a	white X	1	n/a
314.54	22	7	stimulus	n/a	n/a	white X	1	n/a
336.5115153	9.51623519999976	7	stimulus	n/a	n/a	red X	1	n/a
337.7515153	0	7	foot step	2	2	n/a	1	n/a
338.3315153	0	7	foot step	1	1	n/a	1	n/a
338.9815153	0	7	foot step	2	2	n/a	1	n/a
339.7015153	0	7	foot step	3	3	n/a	1	n/a
340.4715153	0	7	foot step	2	2	n/a	1	n/a
341.0915153	0	7	foot step	1	1	n/a	1	n/a
341.7315153	0	7	foot step	3	3	n/a	1	n/a
342.4115153	0	7	foot step	2	2	n/a	1	n/a
343.0515153	0	7	foot step	4	4	n/a	1	n/a
343.7515153	0	7	foot step	2	2	n/a	1	n/a
344.4115153	0	7	foot step	4	4	n/a	1	n/a
345.0615153	0	7	foot step	1	1	n/a	1	n/a
346.06	5	7	stimulus	n/a	n/a	white X	1	n/a
352.52	22.02	8	stimulus	n/a	n/a	white X	1	n/a
374.512325	9.51673359999995	8	stimulus	n/a	n/a	red X	1	n/a
375.842325	0	8	foot step	2	2	n/a	1	n/a
376.422325	0	8	foot step	1	1	n/a	1	n/a
377.152325	0	8	foot step	2	2	n/a	1	n/a
377.782325	0	8	foot step	3	3	n/a	1	n/a
378.502325	0	8	foot step	2	2	n/a	1	n/a
379.092325	0	8	foot step	1	1	n/a	1	n/a
379.742325	0	8	foot step	3	3	n/a	1	n/a
380.412325	0	8	foot step	2	2	n/a	1	n/a
380.982325	0	8	foot step	4	4	n/a	1	n/a
381.672325	0	8	foot step	2	2	n/a	1	n/a
382.342325	0	8	foot step	4	4	n/a	1	n/a
382.952325	0	8	foot step	1	1	n/a	1	n/a
384.06	5	8	stimulus	n/a	n/a	white X	1	n/a
390.32	24	9	stimulus	n/a	n/a	white X	1	n/a
414.2922416	9.50875689999975	9	stimulus	n/a	n/a	red X	1	n/a
415.4422416	0	9	foot step	2	2	n/a	1	n/a
416.0622416	0	9	foot step	1	1	n/a	1	n/a
416.7422416	0	9	foot step	2	2	n/a	1	n/a
417.4222416	0	9	foot step	3	3	n/a	1	n/a
418.1122416	0	9	foot step	2	2	n/a	1	n/a
418.6922416	0	9	foot step	1	1	n/a	1	n/a
419.3622416	0	9	foot step	3	3	n/a	1	n/a
420.0522416	0	9	foot step	2	2	n/a	1	n/a
420.6922416	0	9	foot step	4	4	n/a	1	n/a
421.3722416	0	9	foot step	2	2	n/a	1	n/a
422.0422416	0	9	foot step	4	4	n/a	1	n/a
422.6522416	0	9	foot step	1	1	n/a	1	n/a
423.82	5	9	stimulus	n/a	n/a	white X	1	n/a
431.96	22.02	10	stimulus	n/a	n/a	white X	1	n/a
453.9461842	9.50771080000004	10	stimulus	n/a	n/a	red X	1	n/a
455.1961842	0	10	foot step	2	2	n/a	1	n/a
455.8161842	0	10	foot step	1	1	n/a	1	n/a
456.5261842	0	10	foot step	2	2	n/a	1	n/a
457.2661842	0	10	foot step	3	3	n/a	1	n/a
458.0361842	0	10	foot step	2	2	n/a	1	n/a
458.7961842	0	10	foot step	1	1	n/a	1	n/a
459.4261842	0	10	foot step	3	3	n/a	1	n/a
460.3161842	0	10	foot step	2	2	n/a	1	n/a
460.9361842	0	10	foot step	4	4	n/a	1	n/a
461.6561842	0	10	foot step	2	2	n/a	1	n/a
462.3061842	0	10	foot step	4	4	n/a	1	n/a
462.8961842	0	10	foot step	1	1	n/a	1	n/a
463.48	5	10	stimulus	n/a	n/a	white X	1	n/a
470.26	25	11	stimulus	n/a	n/a	white X	1	n/a
495.2395664	9.50822699999981	11	stimulus	n/a	n/a	red X	1	n/a
496.7595664	0	11	foot step	2	2	n/a	1	n/a
497.4795664	0	11	foot step	1	1	n/a	1	n/a
498.1995664	0	11	foot step	2	2	n/a	1	n/a
498.9395664	0	11	foot step	3	3	n/a	1	n/a
499.7895664	0	11	foot step	2	2	n/a	1	n/a
500.4795664	0	11	foot step	1	1	n/a	1	n/a
501.1995664	0	11	foot step	3	3	n/a	1	n/a
501.9395664	0	11	foot step	2	2	n/a	1	n/a
502.5895664	0	11	foot step	4	4	n/a	1	n/a
503.3295664	0	11	foot step	2	2	n/a	1	n/a
504.0295664	0	11	foot step	4	4	n/a	1	n/a
504.6895664	0	11	foot step	1	1	n/a	1	n/a
504.78	5	11	stimulus	n/a	n/a	white X	1	n/a
