onset	duration	trial_type	TrialNum	StimCond	StimulusNum	Response	response_time	Correct
0.119	2.000	classification-probabilistic	1	1	10	L	1.537	1
3.308	2.000	classification-probabilistic	3	1	3	L	1.584	1
6.577	2.000	classification-probabilistic	5	1	11	L	1.722	0
10.782	2.000	classification-probabilistic	7	1	10	R	1.889	0
15.393	2.000	classification-deterministic	9	2	10	L	1.107	1
18.995	2.000	classification-deterministic	11	2	10	R	1.567	0
22.294	2.000	classification-deterministic	13	2	11	L	1.443	0
27.110	2.000	classification-deterministic	15	2	10	L	0.885	1
34.593	2.000	classification-deterministic	17	2	2	L	1.093	0
40.093	2.000	classification-probabilistic	19	1	3	R	1.783	0
43.576	2.000	classification-probabilistic	21	1	14	R	1.203	1
50.478	2.000	classification-deterministic	23	2	13	R	1.926	0
55.701	2.000	classification-probabilistic	25	1	2	L	0.881	0
59.491	2.000	classification-probabilistic	27	1	10	R	2.319	0
63.882	2.000	classification-probabilistic	29	1	10	L	0.904	1
67.894	2.000	classification-probabilistic	31	1	10	R	1.314	0
72.702	2.000	classification-deterministic	33	2	2	L	0.824	0
77.087	2.000	classification-probabilistic	35	1	3	R	1.190	0
82.111	2.000	classification-deterministic	37	2	5	L	0.990	0
88.981	2.000	classification-deterministic	39	2	1	R	1.919	0
93.522	2.000	classification-deterministic	41	2	13	R	0.823	0
100.195	2.000	classification-probabilistic	43	1	4	L	1.420	1
107.201	2.000	classification-probabilistic	45	1	4	L	0.830	1
110.383	2.000	classification-deterministic	47	2	10	L	1.307	1
113.808	2.000	classification-deterministic	49	2	2	L	0.817	0
117.812	2.000	classification-deterministic	51	2	1	R	1.165	0
125.178	2.000	classification-probabilistic	53	1	5	L	1.038	0
131.510	2.000	classification-probabilistic	55	1	6	R	1.434	0
136.817	2.000	classification-probabilistic	57	1	14	R	1.790	1
139.696	2.000	classification-deterministic	59	2	3	L	1.398	0
143.919	2.000	classification-deterministic	61	2	3	L	0.712	0
149.701	2.000	classification-probabilistic	63	1	3	R	1.149	0
157.319	2.000	classification-probabilistic	65	1	11	R	1.466	1
161.910	2.000	classification-deterministic	67	2	11	L	1.769	0
165.604	2.000	classification-probabilistic	69	1	7	R	0.956	0
169.817	2.000	classification-probabilistic	71	1	1	R	1.186	1
173.106	2.000	classification-probabilistic	73	1	6	R	1.478	0
176.225	2.000	classification-probabilistic	75	1	8	L	1.114	0
180.387	2.000	classification-probabilistic	77	1	8	L	0.812	0
184.815	2.000	classification-deterministic	79	2	3	L	1.237	0
189.420	2.000	classification-deterministic	81	2	13	R	0.892	0
192.719	2.000	classification-deterministic	83	2	9	L	0.780	0
196.279	2.000	classification-probabilistic	85	1	5	R	1.707	1
199.391	2.000	classification-probabilistic	87	1	5	R	1.641	1
202.797	2.000	classification-probabilistic	89	1	11	R	0.972	1
208.589	2.000	classification-probabilistic	91	1	4	L	1.220	1
215.698	2.000	classification-deterministic	93	2	13	R	1.629	0
222.702	2.000	classification-deterministic	95	2	3	L	0.902	0
227.086	2.000	classification-probabilistic	97	1	3	R	1.054	0
233.595	2.000	classification-probabilistic	99	1	11	R	2.120	1
236.687	2.000	classification-probabilistic	101	1	13	L	1.189	1
239.995	2.000	classification-deterministic	103	2	7	R	1.736	0
244.781	2.000	classification-deterministic	105	2	6	R	1.686	0
247.887	2.000	classification-deterministic	107	2	5	L	0.934	0
250.995	2.000	classification-deterministic	109	2	7	R	1.170	0
254.498	2.000	classification-probabilistic	111	1	6	R	1.896	0
259.384	2.000	classification-probabilistic	113	1	10	L	2.255	1
262.410	2.000	classification-deterministic	115	2	11	L	1.681	0
265.912	2.000	classification-deterministic	117	2	12	L	0.868	0
272.118	2.000	classification-deterministic	119	2	8	L	1.416	0
275.576	2.000	classification-probabilistic	121	1	11	R	1.537	1
280.020	2.000	classification-probabilistic	123	1	11	R	0.977	1
283.024	2.000	classification-probabilistic	125	1	14	L	2.073	0
289.510	2.000	classification-probabilistic	127	1	10	L	1.969	1
293.808	2.000	classification-deterministic	129	2	1	R	1.373	0
300.619	2.000	classification-probabilistic	131	1	10	L	1.276	1
305.077	2.000	classification-probabilistic	133	1	11	R	1.899	1
308.220	2.000	classification-deterministic	135	2	6	L	2.201	1
311.585	2.000	classification-deterministic	137	2	2	L	1.898	0
316.496	2.000	classification-probabilistic	139	1	10	R	1.421	0
323.082	2.000	classification-deterministic	141	2	4	R	0.913	0
326.903	2.000	classification-deterministic	143	2	13	R	2.056	0
331.899	2.000	classification-probabilistic	145	1	5	R	1.426	1
339.396	2.000	classification-probabilistic	147	1	6	R	1.531	0
342.999	2.000	classification-probabilistic	149	1	5	L	2.325	0
347.808	2.000	classification-deterministic	151	2	3	L	1.651	0
351.921	2.000	classification-deterministic	153	2	1	R	0.878	0
356.120	2.000	classification-deterministic	155	2	7	R	1.584	0
363.015	2.000	classification-probabilistic	157	1	9	R	2.077	0
367.190	2.000	classification-probabilistic	159	1	14	R	1.649	1
371.978	2.000	classification-probabilistic	161	1	2	L	1.018	0
374.921	2.000	classification-deterministic	163	2	3	L	0.847	0
378.108	2.000	classification-deterministic	165	2	5	R	0.912	1
382.687	2.000	classification-probabilistic	167	1	11	R	1.380	1
386.587	2.000	classification-deterministic	169	2	2	L	1.423	0
393.087	2.000	classification-deterministic	171	2	12	R	0.899	1
397.883	2.000	classification-deterministic	173	2	6	L	1.012	1
400.920	2.000	classification-deterministic	175	2	2	L	1.369	0
407.315	2.000	classification-probabilistic	177	1	1	R	1.223	1
412.898	2.000	classification-deterministic	179	2	10	L	2.326	1
419.111	2.000	classification-deterministic	181	2	7	R	1.244	0
423.185	2.000	classification-deterministic	183	2	13	R	0.772	0
427.087	2.000	classification-deterministic	185	2	1	R	0.926	0
432.018	2.000	classification-probabilistic	187	1	12	R	1.320	-1
435.112	2.000	classification-probabilistic	189	1	8	L	1.004	0
441.010	2.000	classification-probabilistic	191	1	10	R	2.021	0
446.512	2.000	classification-deterministic	193	2	10	R	1.604	0
451.897	2.000	classification-deterministic	195	2	7	R	1.137	0
455.685	2.000	classification-deterministic	197	2	13	R	0.820	0
460.220	2.000	classification-deterministic	199	2	9	R	2.194	1
