onset	duration	trial_type	feedback	TrialNum	StimCond	StimulusNum	Response	RT	Correct	Feedback
0.27749999999999997	2.0	feedback	0.8	1	2	12	R	1.5119999999999998	1	R
4.691	2.0	feedback	0.8	2	2	12	R	1.206	1	R
9.1125	2.0	feedback	0.8	3	2	5	R	1.3219999999999998	1	R
13.6115	2.0	feedback	-1.2	4	2	7	R	1.756	0	L
18.1125	2.0	feedback	0.8	5	2	7	L	1.867	1	L
22.666	n/a	n/a	n/a	6	2	0	R	1.39	-	-
27.177	n/a	n/a	n/a	7	2	0	R	0.6559999999999999	-	-
31.671999999999997	n/a	n/a	n/a	8	2	0	R	0.489	-	-
36.0895	2.0	feedback	-1.2	9	2	4	R	1.081	0	L
40.6145	2.0	feedback	0.8	10	2	7	L	0.956	1	L
45.089	2.0	feedback	0.8	11	2	2	R	1.035	1	R
49.583	2.0	feedback	-1.2	12	2	1	R	1.2830000000000001	0	L
54.1755	2.0	feedback	0.8	13	2	10	L	1.6909999999999998	1	L
58.68600000000001	n/a	n/a	n/a	14	2	0	R	1.548	-	-
63.181999999999995	n/a	n/a	n/a	15	2	0	R	0.725	-	-
67.67699999999999	n/a	n/a	n/a	16	2	0	R	0.645	-	-
72.11349999999999	2.0	feedback	-1.2	17	2	5	L	1.484	0	R
76.61449999999999	2.0	feedback	0.8	18	2	6	L	1.197	1	L
81.0885	2.0	feedback	-1.2	19	2	3	L	1.5419999999999998	0	R
85.61449999999999	2.0	feedback	0.8	20	2	5	R	0.9179999999999999	1	R
90.088	2.0	feedback	-1.2	21	2	3	L	0.8390000000000001	0	R
94.67200000000001	n/a	n/a	n/a	22	2	0	L	1.339	-	-
99.17200000000001	n/a	n/a	n/a	23	2	0	L	0.616	-	-
103.677	n/a	n/a	n/a	24	2	0	L	0.5920000000000001	-	-
108.089	2.0	feedback	-1.2	25	2	3	L	1.07	0	R
112.613	2.0	feedback	-1.2	26	2	8	L	0.919	0	R
117.08850000000001	2.0	feedback	0.8	27	2	2	R	1.2790000000000001	1	R
121.6905	2.0	feedback	0.8	28	2	12	R	1.499	1	R
126.1135	2.0	feedback	0.8	29	2	7	L	1.413	1	L
130.67600000000002	n/a	n/a	n/a	30	2	0	L	2.113	-	-
135.17600000000002	n/a	n/a	n/a	31	2	0	L	0.685	-	-
139.678	n/a	n/a	n/a	32	2	0	L	0.5529999999999999	-	-
144.115	2.0	feedback	0.8	33	2	10	L	1.396	1	L
148.5885	2.0	feedback	0.8	34	2	1	L	1.117	1	L
153.1875	2.0	feedback	-1.2	35	2	12	L	1.383	0	R
157.589	2.0	feedback	-1.2	36	2	3	L	1.725	0	R
162.0885	2.0	feedback	-1.2	37	2	4	R	1.386	0	L
166.674	n/a	n/a	n/a	38	2	0	R	1.421	-	-
171.174	n/a	n/a	n/a	39	2	0	R	0.665	-	-
175.676	n/a	n/a	n/a	40	2	0	R	0.627	-	-
180.11149999999998	2.0	feedback	0.8	41	2	6	L	1.3880000000000001	1	L
184.618	2.0	feedback	0.8	42	2	10	L	1.804	1	L
189.19	2.0	feedback	0.8	43	2	14	R	1.7790000000000001	1	R
193.694	2.0	feedback	-1.2	44	2	13	R	1.585	0	L
198.1125	2.0	feedback	0.8	45	2	7	L	1.123	1	L
202.683	n/a	n/a	n/a	46	2	0	L	1.709	-	-
207.17700000000002	n/a	n/a	n/a	47	2	0	L	0.655	-	-
211.67700000000002	n/a	n/a	n/a	48	2	0	L	0.764	-	-
216.11450000000002	2.0	feedback	0.8	49	2	5	R	1.464	1	R
220.615	2.0	feedback	0.8	50	2	10	L	1.5390000000000001	1	L
225.1135	2.0	feedback	-1.2	51	2	5	L	2.051	0	R
229.589	2.0	feedback	0.8	52	2	2	R	1.4880000000000002	1	R
234.0885	2.0	feedback	-1.2	53	2	2	L	0.917	0	R
238.673	n/a	n/a	n/a	54	2	0	L	1.2570000000000001	-	-
243.17700000000002	n/a	n/a	n/a	55	2	0	L	0.473	-	-
247.673	n/a	n/a	n/a	56	2	0	L	0.602	-	-
252.1135	2.0	feedback	0.8	57	2	9	R	1.548	1	R
256.615	2.0	feedback	-1.2	58	2	9	L	1.237	0	R
261.08799999999997	2.0	feedback	-1.2	59	2	3	L	0.935	0	R
265.6875	2.0	feedback	0.8	60	2	12	R	1.4480000000000002	1	R
270.1115	2.0	feedback	0.8	61	2	10	L	1.033	1	L
274.676	n/a	n/a	n/a	62	2	0	L	1.375	-	-
279.173	n/a	n/a	n/a	63	2	0	L	0.888	-	-
283.678	n/a	n/a	n/a	64	2	0	L	0.7909999999999999	-	-
288.1145	2.0	feedback	0.8	65	2	9	R	1.371	1	R
292.6895	2.0	feedback	-1.2	66	2	11	L	1.5019999999999998	0	R
297.1875	2.0	feedback	-1.2	67	2	13	R	1.222	0	L
301.61350000000004	2.0	feedback	-1.2	68	2	5	L	2.133	0	R
306.0875	2.0	feedback	0.8	69	2	1	L	1.386	1	L
310.67900000000003	n/a	n/a	n/a	70	2	0	L	1.567	-	-
315.171	n/a	n/a	n/a	71	2	0	L	1.0190000000000001	-	-
319.676	n/a	n/a	n/a	72	2	0	L	0.745	-	-
324.1905	2.0	feedback	0.8	73	2	12	R	1.8730000000000002	1	R
328.5885	2.0	feedback	-1.2	74	2	1	R	1.7180000000000002	0	L
333.11400000000003	2.0	feedback	0.8	75	2	5	R	1.382	1	R
337.5885	2.0	feedback	0.8	76	2	4	L	1.102	1	L
342.08900000000006	2.0	feedback	0.8	77	2	4	L	0.993	1	L
346.675	n/a	n/a	n/a	78	2	0	R	1.196	-	-
351.17699999999996	n/a	n/a	n/a	79	2	0	R	0.6709999999999999	-	-
355.675	n/a	n/a	n/a	80	2	0	R	0.6609999999999999	-	-
