onset	duration	trial_type	Object_Cond	Validity_Cond	Obj_Accuracy	Obj_Acc_RT	Subseq_Recog	Subseq_Recog_RT	Subseq_Source_Mem_Acc	Subseq_Source_Mem_Acc_RT
4.0012	1.0	Valid Other Obj Cue: valid cue where following stimulus was an untested or no response object	OBJ	V	1	0.79565	UT	UT	UT	UT
6.0012	0.5	Valid Other Obj: stimulus that was an untested or no response object and that followed a valid cue	OBJ	V	1	0.79565	UT	UT	UT	UT
8.0017	1.0	Invalid HC-Hit Cue: invalid cue where following object was a subsequent high confidence hit	OBJ	NV	1	0.61812	HC-HIT	 1.2868	0	0.86551
14.0017	0.5	Invalid HC-Hit Obj: object that was a subsequent high confidence hit and that followed an invalid cue	OBJ	NV	1	0.61812	HC-HIT	 1.2868	0	0.86551
16.0008	1.0	Valid HC-Hit Cue: valid cue where following object was a subsequent high confidence hit	OBJ	V	1	0.62879	HC-HIT	0.68026	1	0.61858
20.0008	0.5	Valid HC-Hit Obj: object that was a subsequent high confidence hit and that followed a valid cue	OBJ	V	1	0.62879	HC-HIT	0.68026	1	0.61858
22.0015	1.0	Valid Other Greeble Cue: valid cue where following stimulus was an untested or no response greeble	GRE	V	1	0.68037	UT	UT	UT	UT
24.0015	0.5	Valid Other Greeble: stimulus that was an untested or no response greeble and that followed a valid cue	GRE	V	1	0.68037	UT	UT	UT	UT
26.0019	1.0	Valid Other Obj Cue: valid cue where following stimulus was an untested or no response object	OBJ	V	1	0.71273	UT	UT	UT	UT
30.0019	0.5	Valid Other Obj: stimulus that was an untested or no response object and that followed a valid cue	OBJ	V	1	0.71273	UT	UT	UT	UT
32.0015	1.0	Valid LC-Hit Cue: valid cue where following object was a subsequent low confidence hit	OBJ	V	1	0.65208	LC-HIT	 2.3252	1	0.50067
36.0015	0.5	Valid LC-Hit Obj: object that was a subsequent low confidence hit and that followed a valid cue	OBJ	V	1	0.65208	LC-HIT	 2.3252	1	0.50067
40.0014	1.0	Invalid Miss Cue: invalid cue where following object was a subsequent miss	OBJ	NV	1	0.5493399999999999	LC-MISS	 1.1536	UT	UT
42.0014	0.5	Invalid Miss Obj: object that was a subsequent miss and that followed an invalid cue	OBJ	NV	1	0.5493399999999999	LC-MISS	 1.1536	UT	UT
44.0011	1.0	Valid Other Obj Cue: valid cue where following stimulus was an untested or no response object	OBJ	V	1	0.55928	UT	UT	UT	UT
48.0011	0.5	Valid Other Obj: stimulus that was an untested or no response object and that followed a valid cue	OBJ	V	1	0.55928	UT	UT	UT	UT
50.0015	1.0	Valid Other Greeble Cue: valid cue where following stimulus was an untested or no response greeble	GRE	V	1	0.6661699999999999	UT	UT	UT	UT
52.0015	0.5	Valid Other Greeble: stimulus that was an untested or no response greeble and that followed a valid cue	GRE	V	1	0.6661699999999999	UT	UT	UT	UT
54.0016	1.0	Valid Other Greeble Cue: valid cue where following stimulus was an untested or no response greeble	GRE	V	1	0.6015	UT	UT	UT	UT
60.0016	0.5	Valid Other Greeble: stimulus that was an untested or no response greeble and that followed a valid cue	GRE	V	1	0.6015	UT	UT	UT	UT
62.0008	1.0	Valid Miss Cue: valid cue where following object was a subsequent miss	OBJ	V	1	0.7570399999999999	HC-MISS	 3.5973	UT	UT
66.0008	0.5	Valid Miss Obj: object that was a subsequent miss and that followed a valid cue	OBJ	V	1	0.7570399999999999	HC-MISS	 3.5973	UT	UT
68.0008	1.0	Invalid Miss Cue: invalid cue where following object was a subsequent miss	OBJ	NV	1	0.78933	HC-MISS	 1.0081	UT	UT
72.0008	0.5	Invalid Miss Obj: object that was a subsequent miss and that followed an invalid cue	OBJ	NV	1	0.78933	HC-MISS	 1.0081	UT	UT
74.0012	1.0	Valid Other Greeble Cue: valid cue where following stimulus was an untested or no response greeble	GRE	V	1	0.64891	UT	UT	UT	UT
76.0012	0.5	Valid Other Greeble: stimulus that was an untested or no response greeble and that followed a valid cue	GRE	V	1	0.64891	UT	UT	UT	UT
78.0011	1.0	Valid HC-Hit Cue: valid cue where following object was a subsequent high confidence hit	OBJ	V	1	0.68158	HC-HIT	0.84701	1	0.14168
84.0011	0.5	Valid HC-Hit Obj: object that was a subsequent high confidence hit and that followed a valid cue	OBJ	V	1	0.68158	HC-HIT	0.84701	1	0.14168
86.001	1.0	Valid Other Greeble Cue: valid cue where following stimulus was an untested or no response greeble	GRE	V	1	0.69881	UT	UT	UT	UT
90.001	0.5	Valid Other Greeble: stimulus that was an untested or no response greeble and that followed a valid cue	GRE	V	1	0.69881	UT	UT	UT	UT
92.0007	1.0	Invalid Other Greeble Cue: invalid cue where following stimulus was an untested or no response greeble	GRE	NV	1	0.73866	UT	UT	UT	UT
98.0007	0.5	Invalid Other Greeble: stimulus that was an untested or no response greeble and that followed a invalid cue	GRE	NV	1	0.73866	UT	UT	UT	UT
102.0011	1.0	Valid Miss Cue: valid cue where following object was a subsequent miss	OBJ	V	0	0.74064	HC-MISS	0.74431	UT	UT
104.0011	0.5	Valid Miss Obj: object that was a subsequent miss and that followed a valid cue	OBJ	V	0	0.74064	HC-MISS	0.74431	UT	UT
106.0009	1.0	Valid Miss Cue: valid cue where following object was a subsequent miss	OBJ	V	1	0.8569100000000001	HC-MISS	 1.0253	UT	UT
108.0009	0.5	Valid Miss Obj: object that was a subsequent miss and that followed a valid cue	OBJ	V	1	0.8569100000000001	HC-MISS	 1.0253	UT	UT
112.0013	1.0	Valid Miss Cue: valid cue where following object was a subsequent miss	OBJ	V	1	0.77605	HC-MISS	0.94933	UT	UT
116.0013	0.5	Valid Miss Obj: object that was a subsequent miss and that followed a valid cue	OBJ	V	1	0.77605	HC-MISS	0.94933	UT	UT
122.0019	1.0	Invalid Miss Cue: invalid cue where following object was a subsequent miss	OBJ	NV	1	0.67477	HC-MISS	0.75481	UT	UT
128.0019	0.5	Invalid Miss Obj: object that was a subsequent miss and that followed an invalid cue	OBJ	NV	1	0.67477	HC-MISS	0.75481	UT	UT
132.001	1.0	Valid Other Greeble Cue: valid cue where following stimulus was an untested or no response greeble	GRE	V	1	0.6713899999999999	UT	UT	UT	UT
138.001	0.5	Valid Other Greeble: stimulus that was an untested or no response greeble and that followed a valid cue	GRE	V	1	0.6713899999999999	UT	UT	UT	UT
140.0014	1.0	Invalid HC-Hit Cue: invalid cue where following object was a subsequent high confidence hit	OBJ	NV	1	1.876	HC-HIT	 2.2848	0	0.2429
142.0014	0.5	Invalid HC-Hit Obj: object that was a subsequent high confidence hit and that followed an invalid cue	OBJ	NV	1	1.876	HC-HIT	 2.2848	0	0.2429
148.0011	1.0	Valid Other Greeble Cue: valid cue where following stimulus was an untested or no response greeble	GRE	V	1	0.62022	UT	UT	UT	UT
150.0011	0.5	Valid Other Greeble: stimulus that was an untested or no response greeble and that followed a valid cue	GRE	V	1	0.62022	UT	UT	UT	UT
152.0007	1.0	Valid HC-Hit Cue: valid cue where following object was a subsequent high confidence hit	OBJ	V	1	0.5957399999999999	HC-HIT	0.89325	1	0.069421
158.0007	0.5	Valid HC-Hit Obj: object that was a subsequent high confidence hit and that followed a valid cue	OBJ	V	1	0.5957399999999999	HC-HIT	0.89325	1	0.069421
160.0019	1.0	Valid HC-Hit Cue: valid cue where following object was a subsequent high confidence hit	OBJ	V	1	0.82885	HC-HIT	 1.9409	0	1.3389
164.0019	0.5	Valid HC-Hit Obj: object that was a subsequent high confidence hit and that followed a valid cue	OBJ	V	1	0.82885	HC-HIT	 1.9409	0	1.3389
166.0011	1.0	Valid Other Greeble Cue: valid cue where following stimulus was an untested or no response greeble	GRE	V	1	0.66824	UT	UT	UT	UT
172.0011	0.5	Valid Other Greeble: stimulus that was an untested or no response greeble and that followed a valid cue	GRE	V	1	0.66824	UT	UT	UT	UT
174.0012	1.0	Valid Miss Cue: valid cue where following object was a subsequent miss	OBJ	V	1	0.76598	HC-MISS	0.71513	UT	UT
178.0012	0.5	Valid Miss Obj: object that was a subsequent miss and that followed a valid cue	OBJ	V	1	0.76598	HC-MISS	0.71513	UT	UT
180.0016	1.0	Invalid LC-Hit Cue: invalid cue where following object was a subsequent low confidence hit	OBJ	NV	1	0.65883	LC-HIT	  1.797	1	0.81792
182.0016	0.5	Invalid LC-Hit Obj: object that was a subsequent low confidence hit and that followed an invalid cue	OBJ	NV	1	0.65883	LC-HIT	  1.797	1	0.81792
186.0014	1.0	Valid Miss Cue: valid cue where following object was a subsequent miss	OBJ	V	1	0.74847	LC-MISS	 1.7853	UT	UT
188.0014	0.5	Valid Miss Obj: object that was a subsequent miss and that followed a valid cue	OBJ	V	1	0.74847	LC-MISS	 1.7853	UT	UT
190.0014	1.0	Valid Other Greeble Cue: valid cue where following stimulus was an untested or no response greeble	GRE	V	1	0.6993199999999999	UT	UT	UT	UT
196.0014	0.5	Valid Other Greeble: stimulus that was an untested or no response greeble and that followed a valid cue	GRE	V	1	0.6993199999999999	UT	UT	UT	UT
198.0011	1.0	Valid HC-Hit Cue: valid cue where following object was a subsequent high confidence hit	OBJ	V	1	0.61055	HC-HIT	  1.735	0	0.427
204.0011	0.5	Valid HC-Hit Obj: object that was a subsequent high confidence hit and that followed a valid cue	OBJ	V	1	0.61055	HC-HIT	  1.735	0	0.427
206.0017	1.0	Valid Other Greeble Cue: valid cue where following stimulus was an untested or no response greeble	GRE	V	1	0.63375	UT	UT	UT	UT
212.0017	0.5	Valid Other Greeble: stimulus that was an untested or no response greeble and that followed a valid cue	GRE	V	1	0.63375	UT	UT	UT	UT
214.0016	1.0	Invalid LC-Hit Cue: invalid cue where following object was a subsequent low confidence hit	OBJ	NV	1	0.62053	LC-HIT	 1.5535	1	0.54791
218.0016	0.5	Invalid LC-Hit Obj: object that was a subsequent low confidence hit and that followed an invalid cue	OBJ	NV	1	0.62053	LC-HIT	 1.5535	1	0.54791
222.0019	1.0	Valid Miss Cue: valid cue where following object was a subsequent miss	OBJ	V	1	0.65315	LC-MISS	 1.1383	UT	UT
224.0019	0.5	Valid Miss Obj: object that was a subsequent miss and that followed a valid cue	OBJ	V	1	0.65315	LC-MISS	 1.1383	UT	UT
226.0011	1.0	Valid Miss Cue: valid cue where following object was a subsequent miss	OBJ	V	1	0.72958	HC-MISS	0.95732	UT	UT
228.0011	0.5	Valid Miss Obj: object that was a subsequent miss and that followed a valid cue	OBJ	V	1	0.72958	HC-MISS	0.95732	UT	UT
232.0014	1.0	Valid Miss Cue: valid cue where following object was a subsequent miss	OBJ	V	1	0.57694	LC-MISS	 1.4691	UT	UT
236.0014	0.5	Valid Miss Obj: object that was a subsequent miss and that followed a valid cue	OBJ	V	1	0.57694	LC-MISS	 1.4691	UT	UT
238.0013	1.0	Valid Miss Cue: valid cue where following object was a subsequent miss	OBJ	V	1	0.61688	LC-MISS	0.78855	UT	UT
244.0013	0.5	Valid Miss Obj: object that was a subsequent miss and that followed a valid cue	OBJ	V	1	0.61688	LC-MISS	0.78855	UT	UT
246.0012	1.0	Valid LC-Hit Cue: valid cue where following object was a subsequent low confidence hit	OBJ	V	1	0.79593	LC-HIT	 1.4283	1	0.9341
250.0012	0.5	Valid LC-Hit Obj: object that was a subsequent low confidence hit and that followed a valid cue	OBJ	V	1	0.79593	LC-HIT	 1.4283	1	0.9341
252.0011	1.0	Invalid Other Greeble Cue: invalid cue where following stimulus was an untested or no response greeble	GRE	NV	0	0.51464	UT	UT	UT	UT
258.0011	0.5	Invalid Other Greeble: stimulus that was an untested or no response greeble and that followed a invalid cue	GRE	NV	0	0.51464	UT	UT	UT	UT
260.0013	1.0	Valid Other Greeble Cue: valid cue where following stimulus was an untested or no response greeble	GRE	V	1	0.74106	UT	UT	UT	UT
264.0013	0.5	Valid Other Greeble: stimulus that was an untested or no response greeble and that followed a valid cue	GRE	V	1	0.74106	UT	UT	UT	UT
266.0011	1.0	Valid Other Obj Cue: valid cue where following stimulus was an untested or no response object	OBJ	V	1	0.9041600000000001	UT	UT	UT	UT
268.0011	0.5	Valid Other Obj: stimulus that was an untested or no response object and that followed a valid cue	OBJ	V	1	0.9041600000000001	UT	UT	UT	UT
270.0009	1.0	Valid Other Greeble Cue: valid cue where following stimulus was an untested or no response greeble	GRE	V	1	0.5747899999999999	UT	UT	UT	UT
276.0009	0.5	Valid Other Greeble: stimulus that was an untested or no response greeble and that followed a valid cue	GRE	V	1	0.5747899999999999	UT	UT	UT	UT
278.0016	1.0	Valid Miss Cue: valid cue where following object was a subsequent miss	OBJ	V	1	0.6493800000000001	HC-MISS	0.89073	UT	UT
282.0016	0.5	Valid Miss Obj: object that was a subsequent miss and that followed a valid cue	OBJ	V	1	0.6493800000000001	HC-MISS	0.89073	UT	UT
284.0014	1.0	Valid LC-Hit Cue: valid cue where following object was a subsequent low confidence hit	OBJ	V	1	0.5918100000000001	LC-HIT	0.86199	1	0.51099
290.0014	0.5	Valid LC-Hit Obj: object that was a subsequent low confidence hit and that followed a valid cue	OBJ	V	1	0.5918100000000001	LC-HIT	0.86199	1	0.51099
292.0014	1.0	Valid HC-Hit Cue: valid cue where following object was a subsequent high confidence hit	OBJ	V	1	0.71627	HC-HIT	 1.3191	0	1.4364
294.0014	0.5	Valid HC-Hit Obj: object that was a subsequent high confidence hit and that followed a valid cue	OBJ	V	1	0.71627	HC-HIT	 1.3191	0	1.4364
296.0007	1.0	Valid Other Obj Cue: valid cue where following stimulus was an untested or no response object	OBJ	V	1	0.76825	UT	UT	UT	UT
298.0007	0.5	Valid Other Obj: stimulus that was an untested or no response object and that followed a valid cue	OBJ	V	1	0.76825	UT	UT	UT	UT
300.001	1.0	Valid Miss Cue: valid cue where following object was a subsequent miss	OBJ	V	1	1.4422	HC-MISS	 1.3895	UT	UT
304.001	0.5	Valid Miss Obj: object that was a subsequent miss and that followed a valid cue	OBJ	V	1	1.4422	HC-MISS	 1.3895	UT	UT
306.0017	1.0	Valid HC-Hit Cue: valid cue where following object was a subsequent high confidence hit	OBJ	V	1	0.6741699999999999	HC-HIT	 1.1561	0	1.0471
312.0017	0.5	Valid HC-Hit Obj: object that was a subsequent high confidence hit and that followed a valid cue	OBJ	V	1	0.6741699999999999	HC-HIT	 1.1561	0	1.0471
314.0019	1.0	Valid Miss Cue: valid cue where following object was a subsequent miss	OBJ	V	1	0.71346	LC-MISS	0.73572	UT	UT
320.0019	0.5	Valid Miss Obj: object that was a subsequent miss and that followed a valid cue	OBJ	V	1	0.71346	LC-MISS	0.73572	UT	UT
324.0015	1.0	Valid Miss Cue: valid cue where following object was a subsequent miss	OBJ	V	1	0.56043	LC-MISS	 1.6886	UT	UT
328.0015	0.5	Valid Miss Obj: object that was a subsequent miss and that followed a valid cue	OBJ	V	1	0.56043	LC-MISS	 1.6886	UT	UT
332.001	1.0	Valid Other Greeble Cue: valid cue where following stimulus was an untested or no response greeble	GRE	V	1	0.68635	UT	UT	UT	UT
338.001	0.5	Valid Other Greeble: stimulus that was an untested or no response greeble and that followed a valid cue	GRE	V	1	0.68635	UT	UT	UT	UT
342.0011	1.0	Valid Miss Cue: valid cue where following object was a subsequent miss	OBJ	V	1	0.50559	HC-MISS	0.72362	UT	UT
344.0011	0.5	Valid Miss Obj: object that was a subsequent miss and that followed a valid cue	OBJ	V	1	0.50559	HC-MISS	0.72362	UT	UT
346.0012	1.0	Invalid Miss Cue: invalid cue where following object was a subsequent miss	OBJ	NV	1	1.2013	HC-MISS	0.59513	UT	UT
350.0012	0.5	Invalid Miss Obj: object that was a subsequent miss and that followed an invalid cue	OBJ	NV	1	1.2013	HC-MISS	0.59513	UT	UT
352.001	1.0	Valid Other Greeble Cue: valid cue where following stimulus was an untested or no response greeble	GRE	V	1	0.70755	UT	UT	UT	UT
356.001	0.5	Valid Other Greeble: stimulus that was an untested or no response greeble and that followed a valid cue	GRE	V	1	0.70755	UT	UT	UT	UT
358.0018	1.0	Valid Miss Cue: valid cue where following object was a subsequent miss	OBJ	V	1	0.59935	HC-MISS	 1.2093	UT	UT
360.0018	0.5	Valid Miss Obj: object that was a subsequent miss and that followed a valid cue	OBJ	V	1	0.59935	HC-MISS	 1.2093	UT	UT
362.001	1.0	Valid Miss Cue: valid cue where following object was a subsequent miss	OBJ	V	1	0.9225	HC-MISS	0.82324	UT	UT
364.001	0.5	Valid Miss Obj: object that was a subsequent miss and that followed a valid cue	OBJ	V	1	0.9225	HC-MISS	0.82324	UT	UT
