onset	duration	trial_type	Object_Cond	Validity_Cond	Obj_Accuracy	Obj_Acc_RT	Subseq_Recog	Subseq_Recog_RT	Subseq_Source_Mem_Acc	Subseq_Source_Mem_Acc_RT
4.0007	1.0	Valid Other Obj Cue: valid cue where following stimulus was an untested or no response object	OBJ	V	1	0.6679	UT	UT	UT	UT
6.0007	0.5	Valid Other Obj: stimulus that was an untested or no response object and that followed a valid cue	OBJ	V	1	0.6679	UT	UT	UT	UT
8.0003	1.0	Valid HC-Hit Cue: valid cue where following object was a subsequent high confidence hit	OBJ	V	1	1.2609	HC-HIT	 1.3036	1	0.4277
14.0003	0.5	Valid HC-Hit Obj: object that was a subsequent high confidence hit and that followed a valid cue	OBJ	V	1	1.2609	HC-HIT	 1.3036	1	0.4277
16.0011	1.0	Valid Other Greeble Cue: valid cue where following stimulus was an untested or no response greeble	GRE	V	1	0.75669	UT	UT	UT	UT
20.0011	0.5	Valid Other Greeble: stimulus that was an untested or no response greeble and that followed a valid cue	GRE	V	1	0.75669	UT	UT	UT	UT
22.0014	1.0	Valid HC-Hit Cue: valid cue where following object was a subsequent high confidence hit	OBJ	V	1	0.55661	HC-HIT	 1.2717	0	0.65067
28.0014	0.5	Valid HC-Hit Obj: object that was a subsequent high confidence hit and that followed a valid cue	OBJ	V	1	0.55661	HC-HIT	 1.2717	0	0.65067
30.0018	1.0	Invalid HC-Hit Cue: invalid cue where following object was a subsequent high confidence hit	OBJ	NV	1	1.2648	HC-HIT	0.86517	1	0.69611
32.0018	0.5	Invalid HC-Hit Obj: object that was a subsequent high confidence hit and that followed an invalid cue	OBJ	NV	1	1.2648	HC-HIT	0.86517	1	0.69611
36.0019	1.0	Valid Other Greeble Cue: valid cue where following stimulus was an untested or no response greeble	GRE	V	1	0.87905	UT	UT	UT	UT
42.0019	0.5	Valid Other Greeble: stimulus that was an untested or no response greeble and that followed a valid cue	GRE	V	1	0.87905	UT	UT	UT	UT
44.0011	1.0	Valid Miss Cue: valid cue where following object was a subsequent miss	OBJ	V	1	0.76217	HC-MISS	 1.8667	UT	UT
46.0011	0.5	Valid Miss Obj: object that was a subsequent miss and that followed a valid cue	OBJ	V	1	0.76217	HC-MISS	 1.8667	UT	UT
48.001000000000005	1.0	Invalid Miss Cue: invalid cue where following object was a subsequent miss	OBJ	NV	1	0.67395	HC-MISS	 1.1531	UT	UT
54.001000000000005	0.5	Invalid Miss Obj: object that was a subsequent miss and that followed an invalid cue	OBJ	NV	1	0.67395	HC-MISS	 1.1531	UT	UT
56.0009	1.0	Valid Other Greeble Cue: valid cue where following stimulus was an untested or no response greeble	GRE	V	1	0.87784	UT	UT	UT	UT
58.0009	0.5	Valid Other Greeble: stimulus that was an untested or no response greeble and that followed a valid cue	GRE	V	1	0.87784	UT	UT	UT	UT
60.0011	1.0	Valid Miss Cue: valid cue where following object was a subsequent miss	OBJ	V	1	0.8387700000000001	HC-MISS	 3.1329	UT	UT
64.0011	0.5	Valid Miss Obj: object that was a subsequent miss and that followed a valid cue	OBJ	V	1	0.8387700000000001	HC-MISS	 3.1329	UT	UT
66.0009	1.0	Invalid Other Greeble Cue: invalid cue where following stimulus was an untested or no response greeble	GRE	NV	1	0.73754	UT	UT	UT	UT
70.0009	0.5	Invalid Other Greeble: stimulus that was an untested or no response greeble and that followed a invalid cue	GRE	NV	1	0.73754	UT	UT	UT	UT
72.0012	1.0	Valid Other Greeble Cue: valid cue where following stimulus was an untested or no response greeble	GRE	V	1	0.66063	UT	UT	UT	UT
74.0012	0.5	Valid Other Greeble: stimulus that was an untested or no response greeble and that followed a valid cue	GRE	V	1	0.66063	UT	UT	UT	UT
76.0013	1.0	Valid HC-Hit Cue: valid cue where following object was a subsequent high confidence hit	OBJ	V	1	1.3458	HC-HIT	 2.4258	1	0.64036
78.0013	0.5	Valid HC-Hit Obj: object that was a subsequent high confidence hit and that followed a valid cue	OBJ	V	1	1.3458	HC-HIT	 2.4258	1	0.64036
80.0012	1.0	Valid Other Greeble Cue: valid cue where following stimulus was an untested or no response greeble	GRE	V	1	0.61638	UT	UT	UT	UT
86.0012	0.5	Valid Other Greeble: stimulus that was an untested or no response greeble and that followed a valid cue	GRE	V	1	0.61638	UT	UT	UT	UT
88.0008	1.0	Valid LC-Hit Cue: valid cue where following object was a subsequent low confidence hit	OBJ	V	1	1.01	LC-HIT	 2.0396	1	0.78857
92.0008	0.5	Valid LC-Hit Obj: object that was a subsequent low confidence hit and that followed a valid cue	OBJ	V	1	1.01	LC-HIT	 2.0396	1	0.78857
94.0017	1.0	Valid Other Greeble Cue: valid cue where following stimulus was an untested or no response greeble	GRE	V	1	0.59775	UT	UT	UT	UT
96.0017	0.5	Valid Other Greeble: stimulus that was an untested or no response greeble and that followed a valid cue	GRE	V	1	0.59775	UT	UT	UT	UT
98.0012	1.0	Valid Miss Cue: valid cue where following object was a subsequent miss	OBJ	V	1	0.84955	HC-MISS	 1.1514	UT	UT
100.0012	0.5	Valid Miss Obj: object that was a subsequent miss and that followed a valid cue	OBJ	V	1	0.84955	HC-MISS	 1.1514	UT	UT
102.0012	1.0	Valid HC-Hit Cue: valid cue where following object was a subsequent high confidence hit	OBJ	V	1	1.1548	HC-HIT	 1.0577	1	0.98261
106.0012	0.5	Valid HC-Hit Obj: object that was a subsequent high confidence hit and that followed a valid cue	OBJ	V	1	1.1548	HC-HIT	 1.0577	1	0.98261
108.0016	1.0	Valid Miss Cue: valid cue where following object was a subsequent miss	OBJ	V	1	0.63502	HC-MISS	 1.0165	UT	UT
114.0016	0.5	Valid Miss Obj: object that was a subsequent miss and that followed a valid cue	OBJ	V	1	0.63502	HC-MISS	 1.0165	UT	UT
116.0015	1.0	Invalid HC-Hit Cue: invalid cue where following object was a subsequent high confidence hit	OBJ	NV	1	1.3192	HC-HIT	  1.324	1	1.7269
118.0015	0.5	Invalid HC-Hit Obj: object that was a subsequent high confidence hit and that followed an invalid cue	OBJ	NV	1	1.3192	HC-HIT	  1.324	1	1.7269
120.0012	1.0	Valid HC-Hit Cue: valid cue where following object was a subsequent high confidence hit	OBJ	V	1	0.9546600000000001	HC-HIT	 1.0597	0	0.63022
122.0012	0.5	Valid HC-Hit Obj: object that was a subsequent high confidence hit and that followed a valid cue	OBJ	V	1	0.9546600000000001	HC-HIT	 1.0597	0	0.63022
124.0007	1.0	Valid Other Greeble Cue: valid cue where following stimulus was an untested or no response greeble	GRE	V	1	0.65899	UT	UT	UT	UT
130.0007	0.5	Valid Other Greeble: stimulus that was an untested or no response greeble and that followed a valid cue	GRE	V	1	0.65899	UT	UT	UT	UT
132.0013	1.0	Valid Miss Cue: valid cue where following object was a subsequent miss	OBJ	V	1	0.70138	LC-MISS	 1.3006	UT	UT
134.0013	0.5	Valid Miss Obj: object that was a subsequent miss and that followed a valid cue	OBJ	V	1	0.70138	LC-MISS	 1.3006	UT	UT
136.0009	1.0	Valid Miss Cue: valid cue where following object was a subsequent miss	OBJ	V	1	0.62712	LC-MISS	0.99394	UT	UT
138.0009	0.5	Valid Miss Obj: object that was a subsequent miss and that followed a valid cue	OBJ	V	1	0.62712	LC-MISS	0.99394	UT	UT
140.0009	1.0	Valid Other Greeble Cue: valid cue where following stimulus was an untested or no response greeble	GRE	V	1	0.69294	UT	UT	UT	UT
142.0009	0.5	Valid Other Greeble: stimulus that was an untested or no response greeble and that followed a valid cue	GRE	V	1	0.69294	UT	UT	UT	UT
144.0014	1.0	Invalid HC-Hit Cue: invalid cue where following object was a subsequent high confidence hit	OBJ	NV	1	1.097	HC-HIT	 1.3029	0	1.7196
146.0014	0.5	Invalid HC-Hit Obj: object that was a subsequent high confidence hit and that followed an invalid cue	OBJ	NV	1	1.097	HC-HIT	 1.3029	0	1.7196
152.0011	1.0	Valid LC-Hit Cue: valid cue where following object was a subsequent low confidence hit	OBJ	V	1	0.65385	LC-HIT	 1.6969	0	0.69306
156.0011	0.5	Valid LC-Hit Obj: object that was a subsequent low confidence hit and that followed a valid cue	OBJ	V	1	0.65385	LC-HIT	 1.6969	0	0.69306
160.0013	1.0	Valid Other Greeble Cue: valid cue where following stimulus was an untested or no response greeble	GRE	V	1	0.6288600000000001	UT	UT	UT	UT
166.0013	0.5	Valid Other Greeble: stimulus that was an untested or no response greeble and that followed a valid cue	GRE	V	1	0.6288600000000001	UT	UT	UT	UT
168.0016	1.0	Valid HC-Hit Cue: valid cue where following object was a subsequent high confidence hit	OBJ	V	1	0.7074600000000001	HC-HIT	 1.6338	1	2.378
174.0016	0.5	Valid HC-Hit Obj: object that was a subsequent high confidence hit and that followed a valid cue	OBJ	V	1	0.7074600000000001	HC-HIT	 1.6338	1	2.378
176.0014	1.0	Valid Miss Cue: valid cue where following object was a subsequent miss	OBJ	V	1	0.61321	LC-MISS	 1.1844	UT	UT
180.0014	0.5	Valid Miss Obj: object that was a subsequent miss and that followed a valid cue	OBJ	V	1	0.61321	LC-MISS	 1.1844	UT	UT
182.0013	1.0	Valid Other Obj Cue: valid cue where following stimulus was an untested or no response object	OBJ	V	1	0.61388	UT	UT	UT	UT
188.0013	0.5	Valid Other Obj: stimulus that was an untested or no response object and that followed a valid cue	OBJ	V	1	0.61388	UT	UT	UT	UT
190.0013	1.0	Valid Other Greeble Cue: valid cue where following stimulus was an untested or no response greeble	GRE	V	1	0.67255	UT	UT	UT	UT
192.0013	0.5	Valid Other Greeble: stimulus that was an untested or no response greeble and that followed a valid cue	GRE	V	1	0.67255	UT	UT	UT	UT
194.0015	1.0	Invalid Miss Cue: invalid cue where following object was a subsequent miss	OBJ	NV	1	0.73822	HC-MISS	0.93212	UT	UT
198.0015	0.5	Invalid Miss Obj: object that was a subsequent miss and that followed an invalid cue	OBJ	NV	1	0.73822	HC-MISS	0.93212	UT	UT
200.0008	1.0	Valid Other Obj Cue: valid cue where following stimulus was an untested or no response object	OBJ	V	1	0.72507	UT	UT	UT	UT
204.0008	0.5	Valid Other Obj: stimulus that was an untested or no response object and that followed a valid cue	OBJ	V	1	0.72507	UT	UT	UT	UT
206.0019	1.0	Valid Other Greeble Cue: valid cue where following stimulus was an untested or no response greeble	GRE	V	1	0.6484300000000001	UT	UT	UT	UT
208.0019	0.5	Valid Other Greeble: stimulus that was an untested or no response greeble and that followed a valid cue	GRE	V	1	0.6484300000000001	UT	UT	UT	UT
210.0015	1.0	Valid Other Greeble Cue: valid cue where following stimulus was an untested or no response greeble	GRE	V	1	0.75117	UT	UT	UT	UT
216.0015	0.5	Valid Other Greeble: stimulus that was an untested or no response greeble and that followed a valid cue	GRE	V	1	0.75117	UT	UT	UT	UT
218.0016	1.0	Valid HC-Hit Cue: valid cue where following object was a subsequent high confidence hit	OBJ	V	1	0.81002	HC-HIT	 1.0555	1	0.19654
222.0016	0.5	Valid HC-Hit Obj: object that was a subsequent high confidence hit and that followed a valid cue	OBJ	V	1	0.81002	HC-HIT	 1.0555	1	0.19654
224.0015	1.0	Valid Miss Cue: valid cue where following object was a subsequent miss	OBJ	V	1	0.65153	LC-MISS	 1.3981	UT	UT
228.0015	0.5	Valid Miss Obj: object that was a subsequent miss and that followed a valid cue	OBJ	V	1	0.65153	LC-MISS	 1.3981	UT	UT
230.0013	1.0	Valid HC-Hit Cue: valid cue where following object was a subsequent high confidence hit	OBJ	V	1	0.8290000000000001	HC-HIT	 0.8314	0	2.1951
234.0013	0.5	Valid HC-Hit Obj: object that was a subsequent high confidence hit and that followed a valid cue	OBJ	V	1	0.8290000000000001	HC-HIT	 0.8314	0	2.1951
240.0019	1.0	Invalid Miss Cue: invalid cue where following object was a subsequent miss	OBJ	NV	1	1.3755	HC-MISS	0.75323	UT	UT
246.0019	0.5	Invalid Miss Obj: object that was a subsequent miss and that followed an invalid cue	OBJ	NV	1	1.3755	HC-MISS	0.75323	UT	UT
250.0016	1.0	Valid Miss Cue: valid cue where following object was a subsequent miss	OBJ	V	1	0.93726	HC-MISS	0.98293	UT	UT
252.0016	0.5	Valid Miss Obj: object that was a subsequent miss and that followed a valid cue	OBJ	V	1	0.93726	HC-MISS	0.98293	UT	UT
256.001	1.0	Valid Miss Cue: valid cue where following object was a subsequent miss	OBJ	V	1	0.60729	HC-MISS	 1.2787	UT	UT
262.001	0.5	Valid Miss Obj: object that was a subsequent miss and that followed a valid cue	OBJ	V	1	0.60729	HC-MISS	 1.2787	UT	UT
264.0017	1.0	Valid Miss Cue: valid cue where following object was a subsequent miss	OBJ	V	1	0.9698399999999999	HC-MISS	0.77925	UT	UT
268.0017	0.5	Valid Miss Obj: object that was a subsequent miss and that followed a valid cue	OBJ	V	1	0.9698399999999999	HC-MISS	0.77925	UT	UT
270.0016	1.0	Valid Other Greeble Cue: valid cue where following stimulus was an untested or no response greeble	GRE	V	1	0.77128	UT	UT	UT	UT
274.0016	0.5	Valid Other Greeble: stimulus that was an untested or no response greeble and that followed a valid cue	GRE	V	1	0.77128	UT	UT	UT	UT
276.0014	1.0	Invalid Miss Cue: invalid cue where following object was a subsequent miss	OBJ	NV	1	1.0693	HC-MISS	0.93002	UT	UT
280.0014	0.5	Invalid Miss Obj: object that was a subsequent miss and that followed an invalid cue	OBJ	NV	1	1.0693	HC-MISS	0.93002	UT	UT
284.0008	1.0	Valid Miss Cue: valid cue where following object was a subsequent miss	OBJ	V	1	0.8330799999999999	HC-MISS	0.74754	UT	UT
290.0008	0.5	Valid Miss Obj: object that was a subsequent miss and that followed a valid cue	OBJ	V	1	0.8330799999999999	HC-MISS	0.74754	UT	UT
292.0013	1.0	Valid Other Obj Cue: valid cue where following stimulus was an untested or no response object	OBJ	V	1	0.76935	UT	UT	UT	UT
298.0013	0.5	Valid Other Obj: stimulus that was an untested or no response object and that followed a valid cue	OBJ	V	1	0.76935	UT	UT	UT	UT
300.0008	1.0	Valid Miss Cue: valid cue where following object was a subsequent miss	OBJ	V	1	1.0995	HC-MISS	0.90673	UT	UT
304.0008	0.5	Valid Miss Obj: object that was a subsequent miss and that followed a valid cue	OBJ	V	1	1.0995	HC-MISS	0.90673	UT	UT
308.0018	1.0	Valid Miss Cue: valid cue where following object was a subsequent miss	OBJ	V	1	0.7246199999999999	HC-MISS	0.76179	UT	UT
310.0018	0.5	Valid Miss Obj: object that was a subsequent miss and that followed a valid cue	OBJ	V	1	0.7246199999999999	HC-MISS	0.76179	UT	UT
314.0016	1.0	Valid Other Greeble Cue: valid cue where following stimulus was an untested or no response greeble	GRE	V	1	0.6604899999999999	UT	UT	UT	UT
318.0016	0.5	Valid Other Greeble: stimulus that was an untested or no response greeble and that followed a valid cue	GRE	V	1	0.6604899999999999	UT	UT	UT	UT
320.0012	1.0	Valid Other Obj Cue: valid cue where following stimulus was an untested or no response object	OBJ	V	1	0.80356	UT	UT	UT	UT
326.0012	0.5	Valid Other Obj: stimulus that was an untested or no response object and that followed a valid cue	OBJ	V	1	0.80356	UT	UT	UT	UT
330.0008	1.0	Invalid Miss Cue: invalid cue where following object was a subsequent miss	OBJ	NV	1	0.80387	HC-MISS	 1.1662	UT	UT
334.0008	0.5	Invalid Miss Obj: object that was a subsequent miss and that followed an invalid cue	OBJ	NV	1	0.80387	HC-MISS	 1.1662	UT	UT
336.0013	1.0	Valid HC-Hit Cue: valid cue where following object was a subsequent high confidence hit	OBJ	V	1	0.83265	HC-HIT	 0.7722	0	1.5414
338.0013	0.5	Valid HC-Hit Obj: object that was a subsequent high confidence hit and that followed a valid cue	OBJ	V	1	0.83265	HC-HIT	 0.7722	0	1.5414
340.0009	1.0	Invalid Other Greeble Cue: invalid cue where following stimulus was an untested or no response greeble	GRE	NV	0	0.59892	UT	UT	UT	UT
346.0009	0.5	Invalid Other Greeble: stimulus that was an untested or no response greeble and that followed a invalid cue	GRE	NV	0	0.59892	UT	UT	UT	UT
350.0013	1.0	Valid Miss Cue: valid cue where following object was a subsequent miss	OBJ	V	1	1.2296	HC-MISS	0.67886	UT	UT
356.0013	0.5	Valid Miss Obj: object that was a subsequent miss and that followed a valid cue	OBJ	V	1	1.2296	HC-MISS	0.67886	UT	UT
360.001	1.0	Valid Miss Cue: valid cue where following object was a subsequent miss	OBJ	V	1	1.9004	HC-MISS	0.63734	UT	UT
364.001	0.5	Valid Miss Obj: object that was a subsequent miss and that followed a valid cue	OBJ	V	1	1.9004	HC-MISS	0.63734	UT	UT
