onset	duration	trial_type	Object_Cond	Validity_Cond	Obj_Accuracy	Obj_Acc_RT	Subseq_Recog	Subseq_Recog_RT	Subseq_Source_Mem_Acc	Subseq_Source_Mem_Acc_RT
4.000	1.000	Valid Other Obj Cue: valid cue where following stimulus was an untested or no response object	OBJ	V	1	0.78457	UT	UT	UT	UT
10.000	0.500	Valid Other Obj: stimulus that was an untested or no response object and that followed a valid cue	OBJ	V	1	0.78457	UT	UT	UT	UT
12.002	1.000	Valid LC-Hit Cue: valid cue where following object was a subsequent low confidence hit	OBJ	V	1	 1.0355	LC-HIT	  1.579	1	1.3951
16.002	0.500	Valid LC-Hit Obj: object that was a subsequent low confidence hit and that followed a valid cue	OBJ	V	1	 1.0355	LC-HIT	  1.579	1	1.3951
18.001	1.000	Valid Other Greeble Cue: valid cue where following stimulus was an untested or no response greeble	GRE	V	1	0.80146	UT	UT	UT	UT
24.001	0.500	Valid Other Greeble: stimulus that was an untested or no response greeble and that followed a valid cue	GRE	V	1	0.80146	UT	UT	UT	UT
28.002	1.000	Invalid Miss Cue: invalid cue where following object was a subsequent miss	OBJ	NV	1	0.76156	HC-MISS	 2.1407	UT	UT
32.002	0.500	Invalid Miss Obj: object that was a subsequent miss and that followed an invalid cue	OBJ	NV	1	0.76156	HC-MISS	 2.1407	UT	UT
34.001	1.000	Valid Other Greeble Cue: valid cue where following stimulus was an untested or no response greeble	GRE	V	1	 0.8771	UT	UT	UT	UT
36.001	0.500	Valid Other Greeble: stimulus that was an untested or no response greeble and that followed a valid cue	GRE	V	1	 0.8771	UT	UT	UT	UT
38.001	1.000	Valid HC-Hit Cue: valid cue where following object was a subsequent high confidence hit	OBJ	V	1	0.70512	HC-HIT	 1.0947	1	0.31119
40.001	0.500	Valid HC-Hit Obj: object that was a subsequent high confidence hit and that followed a valid cue	OBJ	V	1	0.70512	HC-HIT	 1.0947	1	0.31119
42.002	1.000	Valid LC-Hit Cue: valid cue where following object was a subsequent low confidence hit	OBJ	V	1	 0.5809	LC-HIT	0.93096	0	0.40994
44.002	0.500	Valid LC-Hit Obj: object that was a subsequent low confidence hit and that followed a valid cue	OBJ	V	1	 0.5809	LC-HIT	0.93096	0	0.40994
46.002	1.000	Valid HC-Hit Cue: valid cue where following object was a subsequent high confidence hit	OBJ	V	1	0.72141	HC-HIT	0.90592	1	0.74198
48.002	0.500	Valid HC-Hit Obj: object that was a subsequent high confidence hit and that followed a valid cue	OBJ	V	1	0.72141	HC-HIT	0.90592	1	0.74198
50.001	1.000	Valid Other Greeble Cue: valid cue where following stimulus was an untested or no response greeble	GRE	V	1	0.69646	UT	UT	UT	UT
56.001	0.500	Valid Other Greeble: stimulus that was an untested or no response greeble and that followed a valid cue	GRE	V	1	0.69646	UT	UT	UT	UT
58.002	1.000	Invalid Other Greeble Cue: invalid cue where following stimulus was an untested or no response greeble	GRE	NV	1	0.66774	UT	UT	UT	UT
60.002	0.500	Invalid Other Greeble: stimulus that was an untested or no response greeble and that followed a invalid cue	GRE	NV	1	0.66774	UT	UT	UT	UT
62.001	1.000	Valid Other Obj Cue: valid cue where following stimulus was an untested or no response object	OBJ	V	1	0.62397	NR	NR	UT	UT
64.001	0.500	Valid Other Obj: stimulus that was an untested or no response object and that followed a valid cue	OBJ	V	1	0.62397	NR	NR	UT	UT
66.001	1.000	Valid Other Greeble Cue: valid cue where following stimulus was an untested or no response greeble	GRE	V	1	0.70253	UT	UT	UT	UT
72.001	0.500	Valid Other Greeble: stimulus that was an untested or no response greeble and that followed a valid cue	GRE	V	1	0.70253	UT	UT	UT	UT
76.001	1.000	Valid Miss Cue: valid cue where following object was a subsequent miss	OBJ	V	1	0.68654	HC-MISS	0.89331	UT	UT
80.001	0.500	Valid Miss Obj: object that was a subsequent miss and that followed a valid cue	OBJ	V	1	0.68654	HC-MISS	0.89331	UT	UT
86.002	1.000	Valid Miss Cue: valid cue where following object was a subsequent miss	OBJ	V	1	0.65426	HC-MISS	0.72581	UT	UT
88.002	0.500	Valid Miss Obj: object that was a subsequent miss and that followed a valid cue	OBJ	V	1	0.65426	HC-MISS	0.72581	UT	UT
90.001	1.000	Valid HC-Hit Cue: valid cue where following object was a subsequent high confidence hit	OBJ	V	1	 1.0088	HC-HIT	 1.1975	1	0.39868
94.001	0.500	Valid HC-Hit Obj: object that was a subsequent high confidence hit and that followed a valid cue	OBJ	V	1	 1.0088	HC-HIT	 1.1975	1	0.39868
96.002	1.000	Valid Miss Cue: valid cue where following object was a subsequent miss	OBJ	V	1	 1.3771	HC-MISS	0.98082	UT	UT
100.002	0.500	Valid Miss Obj: object that was a subsequent miss and that followed a valid cue	OBJ	V	1	 1.3771	HC-MISS	0.98082	UT	UT
102.001	1.000	Valid Other Greeble Cue: valid cue where following stimulus was an untested or no response greeble	GRE	V	1	0.72192	UT	UT	UT	UT
108.001	0.500	Valid Other Greeble: stimulus that was an untested or no response greeble and that followed a valid cue	GRE	V	1	0.72192	UT	UT	UT	UT
110.002	1.000	Valid Miss Cue: valid cue where following object was a subsequent miss	OBJ	V	1	0.89927	HC-MISS	0.85355	UT	UT
114.002	0.500	Valid Miss Obj: object that was a subsequent miss and that followed a valid cue	OBJ	V	1	0.89927	HC-MISS	0.85355	UT	UT
118.002	1.000	Invalid Other Greeble Cue: invalid cue where following stimulus was an untested or no response greeble	GRE	NV	1	0.67625	UT	UT	UT	UT
120.002	0.500	Invalid Other Greeble: stimulus that was an untested or no response greeble and that followed a invalid cue	GRE	NV	1	0.67625	UT	UT	UT	UT
122.002	1.000	Valid Miss Cue: valid cue where following object was a subsequent miss	OBJ	V	1	0.66276	HC-MISS	0.89824	UT	UT
126.002	0.500	Valid Miss Obj: object that was a subsequent miss and that followed a valid cue	OBJ	V	1	0.66276	HC-MISS	0.89824	UT	UT
130.002	1.000	Valid HC-Hit Cue: valid cue where following object was a subsequent high confidence hit	OBJ	V	1	0.82403	HC-HIT	 1.0641	0	0.42755
132.002	0.500	Valid HC-Hit Obj: object that was a subsequent high confidence hit and that followed a valid cue	OBJ	V	1	0.82403	HC-HIT	 1.0641	0	0.42755
136.002	1.000	Valid LC-Hit Cue: valid cue where following object was a subsequent low confidence hit	OBJ	V	1	 1.0539	LC-HIT	 3.1954	0	0.63694
142.002	0.500	Valid LC-Hit Obj: object that was a subsequent low confidence hit and that followed a valid cue	OBJ	V	1	 1.0539	LC-HIT	 3.1954	0	0.63694
144.001	1.000	Valid Other Greeble Cue: valid cue where following stimulus was an untested or no response greeble	GRE	V	1	0.67973	UT	UT	UT	UT
148.001	0.500	Valid Other Greeble: stimulus that was an untested or no response greeble and that followed a valid cue	GRE	V	1	0.67973	UT	UT	UT	UT
150.001	1.000	Valid HC-Hit Cue: valid cue where following object was a subsequent high confidence hit	OBJ	V	1	0.72229	HC-HIT	 1.8629	1	1.013
154.001	0.500	Valid HC-Hit Obj: object that was a subsequent high confidence hit and that followed a valid cue	OBJ	V	1	0.72229	HC-HIT	 1.8629	1	1.013
156.001	1.000	Invalid HC-Hit Cue: invalid cue where following object was a subsequent high confidence hit	OBJ	NV	1	 0.7147	HC-HIT	 1.1993	1	0.40057
160.001	0.500	Invalid HC-Hit Obj: object that was a subsequent high confidence hit and that followed an invalid cue	OBJ	NV	1	 0.7147	HC-HIT	 1.1993	1	0.40057
162.001	1.000	Valid HC-Hit Cue: valid cue where following object was a subsequent high confidence hit	OBJ	V	1	 1.0022	HC-HIT	 1.6033	1	0.01988
168.001	0.500	Valid HC-Hit Obj: object that was a subsequent high confidence hit and that followed a valid cue	OBJ	V	1	 1.0022	HC-HIT	 1.6033	1	0.01988
172.002	1.000	Valid HC-Hit Cue: valid cue where following object was a subsequent high confidence hit	OBJ	V	NR	NR	HC-HIT	  1.266	0	0.67647
178.002	0.500	Valid HC-Hit Obj: object that was a subsequent high confidence hit and that followed a valid cue	OBJ	V	NR	NR	HC-HIT	  1.266	0	0.67647
180.001	1.000	Valid Other Greeble Cue: valid cue where following stimulus was an untested or no response greeble	GRE	V	1	0.72387	UT	UT	UT	UT
182.001	0.500	Valid Other Greeble: stimulus that was an untested or no response greeble and that followed a valid cue	GRE	V	1	0.72387	UT	UT	UT	UT
184.001	1.000	Valid Other Greeble Cue: valid cue where following stimulus was an untested or no response greeble	GRE	V	1	0.71111	UT	UT	UT	UT
186.001	0.500	Valid Other Greeble: stimulus that was an untested or no response greeble and that followed a valid cue	GRE	V	1	0.71111	UT	UT	UT	UT
188.001	1.000	Invalid HC-Hit Cue: invalid cue where following object was a subsequent high confidence hit	OBJ	NV	1	0.96937	HC-HIT	 1.3581	1	0.27615
192.001	0.500	Invalid HC-Hit Obj: object that was a subsequent high confidence hit and that followed an invalid cue	OBJ	NV	1	0.96937	HC-HIT	 1.3581	1	0.27615
196.001	1.000	Valid Other Greeble Cue: valid cue where following stimulus was an untested or no response greeble	GRE	V	1	0.63129	UT	UT	UT	UT
202.001	0.500	Valid Other Greeble: stimulus that was an untested or no response greeble and that followed a valid cue	GRE	V	1	0.63129	UT	UT	UT	UT
204.002	1.000	Valid HC-Hit Cue: valid cue where following object was a subsequent high confidence hit	OBJ	V	1	0.72247	HC-HIT	 1.5328	1	0.39018
206.002	0.500	Valid HC-Hit Obj: object that was a subsequent high confidence hit and that followed a valid cue	OBJ	V	1	0.72247	HC-HIT	 1.5328	1	0.39018
208.002	1.000	Invalid Miss Cue: invalid cue where following object was a subsequent miss	OBJ	NV	1	0.67756	HC-MISS	 1.2937	UT	UT
210.002	0.500	Invalid Miss Obj: object that was a subsequent miss and that followed an invalid cue	OBJ	NV	1	0.67756	HC-MISS	 1.2937	UT	UT
212.001	1.000	Valid HC-Hit Cue: valid cue where following object was a subsequent high confidence hit	OBJ	V	1	0.70947	HC-HIT	 1.2408	1	0.32604
218.001	0.500	Valid HC-Hit Obj: object that was a subsequent high confidence hit and that followed a valid cue	OBJ	V	1	0.70947	HC-HIT	 1.2408	1	0.32604
220.002	1.000	Valid Other Greeble Cue: valid cue where following stimulus was an untested or no response greeble	GRE	V	1	0.63087	UT	UT	UT	UT
224.002	0.500	Valid Other Greeble: stimulus that was an untested or no response greeble and that followed a valid cue	GRE	V	1	0.63087	UT	UT	UT	UT
226.002	1.000	Valid Miss Cue: valid cue where following object was a subsequent miss	OBJ	V	NR	NR	LC-MISS	  0.976	UT	UT
230.002	0.500	Valid Miss Obj: object that was a subsequent miss and that followed a valid cue	OBJ	V	NR	NR	LC-MISS	  0.976	UT	UT
232.001	1.000	Valid Other Obj Cue: valid cue where following stimulus was an untested or no response object	OBJ	V	1	0.84542	UT	UT	UT	UT
234.001	0.500	Valid Other Obj: stimulus that was an untested or no response object and that followed a valid cue	OBJ	V	1	0.84542	UT	UT	UT	UT
236.002	1.000	Invalid Miss Cue: invalid cue where following object was a subsequent miss	OBJ	NV	1	 1.1241	HC-MISS	0.88442	UT	UT
242.002	0.500	Invalid Miss Obj: object that was a subsequent miss and that followed an invalid cue	OBJ	NV	1	 1.1241	HC-MISS	0.88442	UT	UT
246.001	1.000	Valid LC-Hit Cue: valid cue where following object was a subsequent low confidence hit	OBJ	V	1	0.99341	LC-HIT	 1.5422	1	1.2474
252.001	0.500	Valid LC-Hit Obj: object that was a subsequent low confidence hit and that followed a valid cue	OBJ	V	1	0.99341	LC-HIT	 1.5422	1	1.2474
254.001	1.000	Valid Other Obj Cue: valid cue where following stimulus was an untested or no response object	OBJ	V	1	  1.143	UT	UT	UT	UT
256.001	0.500	Valid Other Obj: stimulus that was an untested or no response object and that followed a valid cue	OBJ	V	1	  1.143	UT	UT	UT	UT
258.002	1.000	Valid Other Greeble Cue: valid cue where following stimulus was an untested or no response greeble	GRE	V	1	0.87701	UT	UT	UT	UT
264.002	0.500	Valid Other Greeble: stimulus that was an untested or no response greeble and that followed a valid cue	GRE	V	1	0.87701	UT	UT	UT	UT
266.001	1.000	Valid Other Greeble Cue: valid cue where following stimulus was an untested or no response greeble	GRE	V	1	 1.1271	UT	UT	UT	UT
270.001	0.500	Valid Other Greeble: stimulus that was an untested or no response greeble and that followed a valid cue	GRE	V	1	 1.1271	UT	UT	UT	UT
272.001	1.000	Valid Other Obj Cue: valid cue where following stimulus was an untested or no response object	OBJ	V	1	0.66561	UT	UT	UT	UT
276.001	0.500	Valid Other Obj: stimulus that was an untested or no response object and that followed a valid cue	OBJ	V	1	0.66561	UT	UT	UT	UT
278.001	1.000	Invalid LC-Hit Cue: invalid cue where following object was a subsequent low confidence hit	OBJ	NV	1	0.97328	LC-HIT	  1.298	0	1.1749
280.001	0.500	Invalid LC-Hit Obj: object that was a subsequent low confidence hit and that followed an invalid cue	OBJ	NV	1	0.97328	LC-HIT	  1.298	0	1.1749
286.002	1.000	Valid Miss Cue: valid cue where following object was a subsequent miss	OBJ	V	1	 1.9624	LC-MISS	 1.3428	UT	UT
290.002	0.500	Valid Miss Obj: object that was a subsequent miss and that followed a valid cue	OBJ	V	1	 1.9624	LC-MISS	 1.3428	UT	UT
292.002	1.000	Valid Other Obj Cue: valid cue where following stimulus was an untested or no response object	OBJ	V	1	0.94824	UT	UT	UT	UT
296.002	0.500	Valid Other Obj: stimulus that was an untested or no response object and that followed a valid cue	OBJ	V	1	0.94824	UT	UT	UT	UT
298.001	1.000	Valid Miss Cue: valid cue where following object was a subsequent miss	OBJ	V	1	0.56738	LC-MISS	  1.673	UT	UT
300.001	0.500	Valid Miss Obj: object that was a subsequent miss and that followed a valid cue	OBJ	V	1	0.56738	LC-MISS	  1.673	UT	UT
304.001	1.000	Invalid Miss Cue: invalid cue where following object was a subsequent miss	OBJ	NV	1	0.67749	HC-MISS	 2.5041	UT	UT
310.001	0.500	Invalid Miss Obj: object that was a subsequent miss and that followed an invalid cue	OBJ	NV	1	0.67749	HC-MISS	 2.5041	UT	UT
312.002	1.000	Valid Miss Cue: valid cue where following object was a subsequent miss	OBJ	V	1	 1.2494	HC-MISS	 0.7817	UT	UT
314.002	0.500	Valid Miss Obj: object that was a subsequent miss and that followed a valid cue	OBJ	V	1	 1.2494	HC-MISS	 0.7817	UT	UT
316.001	1.000	Valid Miss Cue: valid cue where following object was a subsequent miss	OBJ	V	1	 0.5925	HC-MISS	0.90074	UT	UT
322.001	0.500	Valid Miss Obj: object that was a subsequent miss and that followed a valid cue	OBJ	V	1	 0.5925	HC-MISS	0.90074	UT	UT
324.001	1.000	Valid Other Greeble Cue: valid cue where following stimulus was an untested or no response greeble	GRE	V	0	  1.073	UT	UT	UT	UT
330.001	0.500	Valid Other Greeble: stimulus that was an untested or no response greeble and that followed a valid cue	GRE	V	0	  1.073	UT	UT	UT	UT
332.001	1.000	Valid Other Greeble Cue: valid cue where following stimulus was an untested or no response greeble	GRE	V	1	0.67136	UT	UT	UT	UT
338.001	0.500	Valid Other Greeble: stimulus that was an untested or no response greeble and that followed a valid cue	GRE	V	1	0.67136	UT	UT	UT	UT
340.001	1.000	Valid LC-Hit Cue: valid cue where following object was a subsequent low confidence hit	OBJ	V	1	0.90456	LC-HIT	 1.4683	0	1.4905
346.001	0.500	Valid LC-Hit Obj: object that was a subsequent low confidence hit and that followed a valid cue	OBJ	V	1	0.90456	LC-HIT	 1.4683	0	1.4905
348.001	1.000	Invalid LC-Hit Cue: invalid cue where following object was a subsequent low confidence hit	OBJ	NV	1	0.86827	LC-HIT	 1.7926	1	1.3102
350.001	0.500	Invalid LC-Hit Obj: object that was a subsequent low confidence hit and that followed an invalid cue	OBJ	NV	1	0.86827	LC-HIT	 1.7926	1	1.3102
354.001	1.000	Valid HC-Hit Cue: valid cue where following object was a subsequent high confidence hit	OBJ	V	1	0.74813	HC-HIT	 1.2986	1	0.46651
358.001	0.500	Valid HC-Hit Obj: object that was a subsequent high confidence hit and that followed a valid cue	OBJ	V	1	0.74813	HC-HIT	 1.2986	1	0.46651
360.002	1.000	Valid HC-Hit Cue: valid cue where following object was a subsequent high confidence hit	OBJ	V	1	  1.524	HC-HIT	 1.4898	1	1.6099
364.002	0.500	Valid HC-Hit Obj: object that was a subsequent high confidence hit and that followed a valid cue	OBJ	V	1	  1.524	HC-HIT	 1.4898	1	1.6099
