onset	duration	trial_type	Object_Cond	Validity_Cond	Obj_Accuracy	Obj_Acc_RT	Subseq_Recog	Subseq_Recog_RT	Subseq_Source_Mem_Acc	Subseq_Source_Mem_Acc_RT
4.0008	1.0	Valid Other Greeble Cue: valid cue where following stimulus was an untested or no response greeble	GRE	V	1	0.65633	UT	UT	UT	UT
8.0008	0.5	Valid Other Greeble: stimulus that was an untested or no response greeble and that followed a valid cue	GRE	V	1	0.65633	UT	UT	UT	UT
10.0009	1.0	Valid LC-Hit Cue: valid cue where following object was a subsequent low confidence hit	OBJ	V	1	 0.7456	LC-HIT	  1.237	1	2.1102
14.0009	0.5	Valid LC-Hit Obj: object that was a subsequent low confidence hit and that followed a valid cue	OBJ	V	1	 0.7456	LC-HIT	  1.237	1	2.1102
16.0017	1.0	Valid HC-Hit Cue: valid cue where following object was a subsequent high confidence hit	OBJ	V	1	0.92146	HC-HIT	 1.3279	0	0.95256
22.0017	0.5	Valid HC-Hit Obj: object that was a subsequent high confidence hit and that followed a valid cue	OBJ	V	1	0.92146	HC-HIT	 1.3279	0	0.95256
24.0017	1.0	Valid Other Greeble Cue: valid cue where following stimulus was an untested or no response greeble	GRE	V	1	 0.7554	UT	UT	UT	UT
28.0017	0.5	Valid Other Greeble: stimulus that was an untested or no response greeble and that followed a valid cue	GRE	V	1	 0.7554	UT	UT	UT	UT
30.0015	1.0	Valid Other Obj Cue: valid cue where following stimulus was an untested or no response object	OBJ	V	NR	NR	UT	UT	UT	UT
34.0015	0.5	Valid Other Obj: stimulus that was an untested or no response object and that followed a valid cue	OBJ	V	NR	NR	UT	UT	UT	UT
36.0013	1.0	Invalid HC-Hit Cue: invalid cue where following object was a subsequent high confidence hit	OBJ	NV	NR	NR	HC-HIT	  1.352	0	0.88354
40.0013	0.5	Invalid HC-Hit Obj: object that was a subsequent high confidence hit and that followed an invalid cue	OBJ	NV	NR	NR	HC-HIT	  1.352	0	0.88354
42.0014	1.0	Valid Other Greeble Cue: valid cue where following stimulus was an untested or no response greeble	GRE	V	1	0.73641	UT	UT	UT	UT
46.0014	0.5	Valid Other Greeble: stimulus that was an untested or no response greeble and that followed a valid cue	GRE	V	1	0.73641	UT	UT	UT	UT
48.0012	1.0	Valid Miss Cue: valid cue where following object was a subsequent miss	OBJ	V	1	0.79187	LC-MISS	 1.4964	UT	UT
54.0012	0.5	Valid Miss Obj: object that was a subsequent miss and that followed a valid cue	OBJ	V	1	0.79187	LC-MISS	 1.4964	UT	UT
56.0013	1.0	Valid HC-Hit Cue: valid cue where following object was a subsequent high confidence hit	OBJ	V	1	    1.6	HC-HIT	0.96149	1	2.1752
62.0013	0.5	Valid HC-Hit Obj: object that was a subsequent high confidence hit and that followed a valid cue	OBJ	V	1	    1.6	HC-HIT	0.96149	1	2.1752
64.0007	1.0	Invalid HC-Hit Cue: invalid cue where following object was a subsequent high confidence hit	OBJ	NV	1	 1.5795	HC-HIT	 1.6776	0	0.62433
66.0007	0.5	Invalid HC-Hit Obj: object that was a subsequent high confidence hit and that followed an invalid cue	OBJ	NV	1	 1.5795	HC-HIT	 1.6776	0	0.62433
70.0008	1.0	Valid Other Greeble Cue: valid cue where following stimulus was an untested or no response greeble	GRE	V	1	0.71748	UT	UT	UT	UT
72.0008	0.5	Valid Other Greeble: stimulus that was an untested or no response greeble and that followed a valid cue	GRE	V	1	0.71748	UT	UT	UT	UT
74.0016	1.0	Valid Miss Cue: valid cue where following object was a subsequent miss	OBJ	V	1	0.65707	LC-MISS	 1.3335	UT	UT
76.0016	0.5	Valid Miss Obj: object that was a subsequent miss and that followed a valid cue	OBJ	V	1	0.65707	LC-MISS	 1.3335	UT	UT
80.0018	1.0	Valid LC-Hit Cue: valid cue where following object was a subsequent low confidence hit	OBJ	V	1	 1.4354	LC-HIT	 2.3713	0	1.1145
82.0018	0.5	Valid LC-Hit Obj: object that was a subsequent low confidence hit and that followed a valid cue	OBJ	V	1	 1.4354	LC-HIT	 2.3713	0	1.1145
84.0015	1.0	Valid Other Obj Cue: valid cue where following stimulus was an untested or no response object	OBJ	V	1	0.60986	UT	UT	UT	UT
90.0015	0.5	Valid Other Obj: stimulus that was an untested or no response object and that followed a valid cue	OBJ	V	1	0.60986	UT	UT	UT	UT
92.0013	1.0	Valid Miss Cue: valid cue where following object was a subsequent miss	OBJ	V	1	 1.6461	LC-MISS	 2.3027	UT	UT
94.0013	0.5	Valid Miss Obj: object that was a subsequent miss and that followed a valid cue	OBJ	V	1	 1.6461	LC-MISS	 2.3027	UT	UT
96.0015	1.0	Valid Other Greeble Cue: valid cue where following stimulus was an untested or no response greeble	GRE	V	1	0.77401	UT	UT	UT	UT
102.0015	0.5	Valid Other Greeble: stimulus that was an untested or no response greeble and that followed a valid cue	GRE	V	1	0.77401	UT	UT	UT	UT
104.0009	1.0	Invalid HC-Hit Cue: invalid cue where following object was a subsequent high confidence hit	OBJ	NV	1	0.92484	HC-HIT	 1.2927	1	1.6092
110.0009	0.5	Invalid HC-Hit Obj: object that was a subsequent high confidence hit and that followed an invalid cue	OBJ	NV	1	0.92484	HC-HIT	 1.2927	1	1.6092
112.0014	1.0	Valid HC-Hit Cue: valid cue where following object was a subsequent high confidence hit	OBJ	V	1	 1.4733	HC-HIT	0.79062	1	1.9396
114.0014	0.5	Valid HC-Hit Obj: object that was a subsequent high confidence hit and that followed a valid cue	OBJ	V	1	 1.4733	HC-HIT	0.79062	1	1.9396
116.0016	1.0	Valid HC-Hit Cue: valid cue where following object was a subsequent high confidence hit	OBJ	V	1	0.97083	HC-HIT	 1.9287	1	0.54625
120.0016	0.5	Valid HC-Hit Obj: object that was a subsequent high confidence hit and that followed a valid cue	OBJ	V	1	0.97083	HC-HIT	 1.9287	1	0.54625
122.0016	1.0	Valid HC-Hit Cue: valid cue where following object was a subsequent high confidence hit	OBJ	V	1	 1.4198	HC-HIT	0.83401	0	0.74195
126.0016	0.5	Valid HC-Hit Obj: object that was a subsequent high confidence hit and that followed a valid cue	OBJ	V	1	 1.4198	HC-HIT	0.83401	0	0.74195
128.0012	1.0	Valid Other Greeble Cue: valid cue where following stimulus was an untested or no response greeble	GRE	V	1	0.77253	UT	UT	UT	UT
134.0012	0.5	Valid Other Greeble: stimulus that was an untested or no response greeble and that followed a valid cue	GRE	V	1	0.77253	UT	UT	UT	UT
136.0014	1.0	Valid Other Obj Cue: valid cue where following stimulus was an untested or no response object	OBJ	V	1	0.89506	UT	UT	UT	UT
138.0014	0.5	Valid Other Obj: stimulus that was an untested or no response object and that followed a valid cue	OBJ	V	1	0.89506	UT	UT	UT	UT
140.0018	1.0	Valid HC-Hit Cue: valid cue where following object was a subsequent high confidence hit	OBJ	V	1	0.93935	HC-HIT	 1.4605	0	0.92141
142.0018	0.5	Valid HC-Hit Obj: object that was a subsequent high confidence hit and that followed a valid cue	OBJ	V	1	0.93935	HC-HIT	 1.4605	0	0.92141
144.0016	1.0	Invalid LC-Hit Cue: invalid cue where following object was a subsequent low confidence hit	OBJ	NV	1	0.85903	LC-HIT	  2.053	0	0.32919
150.0016	0.5	Invalid LC-Hit Obj: object that was a subsequent low confidence hit and that followed an invalid cue	OBJ	NV	1	0.85903	LC-HIT	  2.053	0	0.32919
154.0015	1.0	Valid Miss Cue: valid cue where following object was a subsequent miss	OBJ	V	1	0.80362	HC-MISS	 1.4705	UT	UT
158.0015	0.5	Valid Miss Obj: object that was a subsequent miss and that followed a valid cue	OBJ	V	1	0.80362	HC-MISS	 1.4705	UT	UT
160.0011	1.0	Valid Other Greeble Cue: valid cue where following stimulus was an untested or no response greeble	GRE	V	1	0.78298	UT	UT	UT	UT
162.0011	0.5	Valid Other Greeble: stimulus that was an untested or no response greeble and that followed a valid cue	GRE	V	1	0.78298	UT	UT	UT	UT
164.0016	1.0	Valid LC-Hit Cue: valid cue where following object was a subsequent low confidence hit	OBJ	V	1	0.75251	LC-HIT	 1.5189	0	1.1715
168.0016	0.5	Valid LC-Hit Obj: object that was a subsequent low confidence hit and that followed a valid cue	OBJ	V	1	0.75251	LC-HIT	 1.5189	0	1.1715
174.0009	1.0	Valid Other Obj Cue: valid cue where following stimulus was an untested or no response object	OBJ	V	1	0.67604	UT	UT	UT	UT
180.0009	0.5	Valid Other Obj: stimulus that was an untested or no response object and that followed a valid cue	OBJ	V	1	0.67604	UT	UT	UT	UT
182.0014	1.0	Invalid Other Greeble Cue: invalid cue where following stimulus was an untested or no response greeble	GRE	NV	1	 0.7556	UT	UT	UT	UT
188.0014	0.5	Invalid Other Greeble: stimulus that was an untested or no response greeble and that followed a invalid cue	GRE	NV	1	 0.7556	UT	UT	UT	UT
192.00099999999998	1.0	Valid HC-Hit Cue: valid cue where following object was a subsequent high confidence hit	OBJ	V	1	0.74942	HC-HIT	0.94451	1	0.97966
194.00099999999998	0.5	Valid HC-Hit Obj: object that was a subsequent high confidence hit and that followed a valid cue	OBJ	V	1	0.74942	HC-HIT	0.94451	1	0.97966
196.00099999999998	1.0	Valid HC-Hit Cue: valid cue where following object was a subsequent high confidence hit	OBJ	V	1	0.62246	HC-HIT	0.97398	1	0.57698
200.00099999999998	0.5	Valid HC-Hit Obj: object that was a subsequent high confidence hit and that followed a valid cue	OBJ	V	1	0.62246	HC-HIT	0.97398	1	0.57698
202.00099999999998	1.0	Invalid HC-Hit Cue: invalid cue where following object was a subsequent high confidence hit	OBJ	NV	1	  1.153	HC-HIT	 1.0955	0	0.62746
206.00099999999998	0.5	Invalid HC-Hit Obj: object that was a subsequent high confidence hit and that followed an invalid cue	OBJ	NV	1	  1.153	HC-HIT	 1.0955	0	0.62746
210.0018	1.0	Valid Miss Cue: valid cue where following object was a subsequent miss	OBJ	V	1	 1.4583	HC-MISS	  1.022	UT	UT
212.0018	0.5	Valid Miss Obj: object that was a subsequent miss and that followed a valid cue	OBJ	V	1	 1.4583	HC-MISS	  1.022	UT	UT
214.0014	1.0	Valid Other Greeble Cue: valid cue where following stimulus was an untested or no response greeble	GRE	V	1	0.70891	UT	UT	UT	UT
216.0014	0.5	Valid Other Greeble: stimulus that was an untested or no response greeble and that followed a valid cue	GRE	V	1	0.70891	UT	UT	UT	UT
218.0016	1.0	Valid HC-Hit Cue: valid cue where following object was a subsequent high confidence hit	OBJ	V	1	0.64621	HC-HIT	 1.1576	0	0.50669
224.0016	0.5	Valid HC-Hit Obj: object that was a subsequent high confidence hit and that followed a valid cue	OBJ	V	1	0.64621	HC-HIT	 1.1576	0	0.50669
226.0017	1.0	Valid HC-Hit Cue: valid cue where following object was a subsequent high confidence hit	OBJ	V	1	0.77271	HC-HIT	 1.1925	1	0.44061
232.0017	0.5	Valid HC-Hit Obj: object that was a subsequent high confidence hit and that followed a valid cue	OBJ	V	1	0.77271	HC-HIT	 1.1925	1	0.44061
234.0013	1.0	Valid Miss Cue: valid cue where following object was a subsequent miss	OBJ	V	NR	NR	LC-MISS	 1.4689	UT	UT
236.0013	0.5	Valid Miss Obj: object that was a subsequent miss and that followed a valid cue	OBJ	V	NR	NR	LC-MISS	 1.4689	UT	UT
238.0016	1.0	Valid Other Greeble Cue: valid cue where following stimulus was an untested or no response greeble	GRE	V	1	0.90807	UT	UT	UT	UT
240.0016	0.5	Valid Other Greeble: stimulus that was an untested or no response greeble and that followed a valid cue	GRE	V	1	0.90807	UT	UT	UT	UT
242.0014	1.0	Valid HC-Hit Cue: valid cue where following object was a subsequent high confidence hit	OBJ	V	1	0.92838	HC-HIT	 1.3857	1	1.6193
244.0014	0.5	Valid HC-Hit Obj: object that was a subsequent high confidence hit and that followed a valid cue	OBJ	V	1	0.92838	HC-HIT	 1.3857	1	1.6193
248.00099999999998	1.0	Invalid HC-Hit Cue: invalid cue where following object was a subsequent high confidence hit	OBJ	NV	1	0.91487	HC-HIT	 1.4069	0	0.51232
250.00099999999998	0.5	Invalid HC-Hit Obj: object that was a subsequent high confidence hit and that followed an invalid cue	OBJ	NV	1	0.91487	HC-HIT	 1.4069	0	0.51232
252.0018	1.0	Valid Other Obj Cue: valid cue where following stimulus was an untested or no response object	OBJ	V	1	0.70604	UT	UT	UT	UT
258.0018	0.5	Valid Other Obj: stimulus that was an untested or no response object and that followed a valid cue	OBJ	V	1	0.70604	UT	UT	UT	UT
260.0018	1.0	Valid HC-Hit Cue: valid cue where following object was a subsequent high confidence hit	OBJ	V	1	  1.436	HC-HIT	 1.1438	0	2.881
264.0018	0.5	Valid HC-Hit Obj: object that was a subsequent high confidence hit and that followed a valid cue	OBJ	V	1	  1.436	HC-HIT	 1.1438	0	2.881
268.0011	1.0	Valid Other Greeble Cue: valid cue where following stimulus was an untested or no response greeble	GRE	V	1	0.67288	UT	UT	UT	UT
274.0011	0.5	Valid Other Greeble: stimulus that was an untested or no response greeble and that followed a valid cue	GRE	V	1	0.67288	UT	UT	UT	UT
276.0011	1.0	Valid HC-Hit Cue: valid cue where following object was a subsequent high confidence hit	OBJ	V	1	0.75314	HC-HIT	 1.2991	1	0.938
282.0011	0.5	Valid HC-Hit Obj: object that was a subsequent high confidence hit and that followed a valid cue	OBJ	V	1	0.75314	HC-HIT	 1.2991	1	0.938
284.002	1.0	Invalid LC-Hit Cue: invalid cue where following object was a subsequent low confidence hit	OBJ	NV	1	 1.7219	LC-HIT	 1.7425	0	1.226
288.002	0.5	Invalid LC-Hit Obj: object that was a subsequent low confidence hit and that followed an invalid cue	OBJ	NV	1	 1.7219	LC-HIT	 1.7425	0	1.226
290.0013	1.0	Valid Other Greeble Cue: valid cue where following stimulus was an untested or no response greeble	GRE	V	1	 0.8422	UT	UT	UT	UT
296.0013	0.5	Valid Other Greeble: stimulus that was an untested or no response greeble and that followed a valid cue	GRE	V	1	 0.8422	UT	UT	UT	UT
300.0015	1.0	Valid HC-Hit Cue: valid cue where following object was a subsequent high confidence hit	OBJ	V	1	0.82573	HC-HIT	0.88166	1	0.36481
304.0015	0.5	Valid HC-Hit Obj: object that was a subsequent high confidence hit and that followed a valid cue	OBJ	V	1	0.82573	HC-HIT	0.88166	1	0.36481
306.0017	1.0	Valid Other Greeble Cue: valid cue where following stimulus was an untested or no response greeble	GRE	V	1	0.94102	UT	UT	UT	UT
308.0017	0.5	Valid Other Greeble: stimulus that was an untested or no response greeble and that followed a valid cue	GRE	V	1	0.94102	UT	UT	UT	UT
310.0008	1.0	Valid LC-Hit Cue: valid cue where following object was a subsequent low confidence hit	OBJ	V	1	 1.0472	LC-HIT	0.93965	1	1.3062
314.0008	0.5	Valid LC-Hit Obj: object that was a subsequent low confidence hit and that followed a valid cue	OBJ	V	1	 1.0472	LC-HIT	0.93965	1	1.3062
316.0014	1.0	Invalid Other Greeble Cue: invalid cue where following stimulus was an untested or no response greeble	GRE	NV	1	0.73622	UT	UT	UT	UT
320.0014	0.5	Invalid Other Greeble: stimulus that was an untested or no response greeble and that followed a invalid cue	GRE	NV	1	0.73622	UT	UT	UT	UT
322.001	1.0	Invalid Miss Cue: invalid cue where following object was a subsequent miss	OBJ	NV	1	0.95655	LC-MISS	 2.0692	UT	UT
324.001	0.5	Invalid Miss Obj: object that was a subsequent miss and that followed an invalid cue	OBJ	NV	1	0.95655	LC-MISS	 2.0692	UT	UT
330.0013	1.0	Valid Other Greeble Cue: valid cue where following stimulus was an untested or no response greeble	GRE	V	1	0.92385	UT	UT	UT	UT
332.0013	0.5	Valid Other Greeble: stimulus that was an untested or no response greeble and that followed a valid cue	GRE	V	1	0.92385	UT	UT	UT	UT
334.001	1.0	Valid Miss Cue: valid cue where following object was a subsequent miss	OBJ	V	1	 1.0454	HC-MISS	0.95302	UT	UT
338.001	0.5	Valid Miss Obj: object that was a subsequent miss and that followed a valid cue	OBJ	V	1	 1.0454	HC-MISS	0.95302	UT	UT
342.0014	1.0	Valid Miss Cue: valid cue where following object was a subsequent miss	OBJ	V	1	0.76348	LC-MISS	  1.645	UT	UT
348.0014	0.5	Valid Miss Obj: object that was a subsequent miss and that followed a valid cue	OBJ	V	1	0.76348	LC-MISS	  1.645	UT	UT
352.001	1.0	Valid Other Greeble Cue: valid cue where following stimulus was an untested or no response greeble	GRE	V	1	0.76118	UT	UT	UT	UT
358.001	0.5	Valid Other Greeble: stimulus that was an untested or no response greeble and that followed a valid cue	GRE	V	1	0.76118	UT	UT	UT	UT
360.0016	1.0	Valid Miss Cue: valid cue where following object was a subsequent miss	OBJ	V	1	0.75443	LC-MISS	 1.8589	UT	UT
364.0016	0.5	Valid Miss Obj: object that was a subsequent miss and that followed a valid cue	OBJ	V	1	0.75443	LC-MISS	 1.8589	UT	UT
