onset	duration	trial_type	Object_Cond	Validity_Cond	Obj_Accuracy	Obj_Acc_RT	Subseq_Recog	Subseq_Recog_RT	Subseq_Source_Mem_Acc	Subseq_Source_Mem_Acc_RT
4.0003	1.0	Valid Other Obj Cue: valid cue where following stimulus was an untested or no response object	OBJ	V	1	 1.1379	UT	UT	UT	UT
6.0003	0.5	Valid Other Obj: stimulus that was an untested or no response object and that followed a valid cue	OBJ	V	1	 1.1379	UT	UT	UT	UT
8.0017	1.0	Valid Miss Cue: valid cue where following object was a subsequent miss	OBJ	V	1	 1.0695	LC-MISS	 1.4313	UT	UT
10.0017	0.5	Valid Miss Obj: object that was a subsequent miss and that followed a valid cue	OBJ	V	1	 1.0695	LC-MISS	 1.4313	UT	UT
14.001	1.0	Valid Miss Cue: valid cue where following object was a subsequent miss	OBJ	V	1	0.85328	HC-MISS	 1.8295	UT	UT
18.000999999999998	0.5	Valid Miss Obj: object that was a subsequent miss and that followed a valid cue	OBJ	V	1	0.85328	HC-MISS	 1.8295	UT	UT
24.0015	1.0	Valid Other Greeble Cue: valid cue where following stimulus was an untested or no response greeble	GRE	V	1	0.91678	UT	UT	UT	UT
26.0015	0.5	Valid Other Greeble: stimulus that was an untested or no response greeble and that followed a valid cue	GRE	V	1	0.91678	UT	UT	UT	UT
28.0011	1.0	Valid HC-Hit Cue: valid cue where following object was a subsequent high confidence hit	OBJ	V	1	  1.166	HC-HIT	 1.0994	0	1.8178
32.0011	0.5	Valid HC-Hit Obj: object that was a subsequent high confidence hit and that followed a valid cue	OBJ	V	1	  1.166	HC-HIT	 1.0994	0	1.8178
34.0019	1.0	Valid Other Obj Cue: valid cue where following stimulus was an untested or no response object	OBJ	V	1	 1.2105	UT	UT	UT	UT
36.0019	0.5	Valid Other Obj: stimulus that was an untested or no response object and that followed a valid cue	OBJ	V	1	 1.2105	UT	UT	UT	UT
38.0024	1.0	Valid Other Greeble Cue: valid cue where following stimulus was an untested or no response greeble	GRE	V	1	0.79858	UT	UT	UT	UT
40.0024	0.5	Valid Other Greeble: stimulus that was an untested or no response greeble and that followed a valid cue	GRE	V	1	0.79858	UT	UT	UT	UT
42.0019	1.0	Valid HC-Hit Cue: valid cue where following object was a subsequent high confidence hit	OBJ	V	1	0.79439	HC-HIT	0.89397	0	1.3875
44.0019	0.5	Valid HC-Hit Obj: object that was a subsequent high confidence hit and that followed a valid cue	OBJ	V	1	0.79439	HC-HIT	0.89397	0	1.3875
48.0018	1.0	Invalid HC-Hit Cue: invalid cue where following object was a subsequent high confidence hit	OBJ	NV	1	 1.0844	HC-HIT	0.97039	1	2.1171
50.0018	0.5	Invalid HC-Hit Obj: object that was a subsequent high confidence hit and that followed an invalid cue	OBJ	NV	1	 1.0844	HC-HIT	0.97039	1	2.1171
56.0015	1.0	Valid HC-Hit Cue: valid cue where following object was a subsequent high confidence hit	OBJ	V	1	 1.0786	HC-HIT	 1.0552	0	0.46945
62.0015	0.5	Valid HC-Hit Obj: object that was a subsequent high confidence hit and that followed a valid cue	OBJ	V	1	 1.0786	HC-HIT	 1.0552	0	0.46945
64.0013	1.0	Valid Miss Cue: valid cue where following object was a subsequent miss	OBJ	V	1	  1.049	HC-MISS	  3.147	UT	UT
68.0013	0.5	Valid Miss Obj: object that was a subsequent miss and that followed a valid cue	OBJ	V	1	  1.049	HC-MISS	  3.147	UT	UT
70.0013	1.0	Valid Miss Cue: valid cue where following object was a subsequent miss	OBJ	V	1	 0.8734	HC-MISS	0.99421	UT	UT
76.0013	0.5	Valid Miss Obj: object that was a subsequent miss and that followed a valid cue	OBJ	V	1	 0.8734	HC-MISS	0.99421	UT	UT
78.0014	1.0	Valid Other Greeble Cue: valid cue where following stimulus was an untested or no response greeble	GRE	V	1	0.87224	UT	UT	UT	UT
84.0014	0.5	Valid Other Greeble: stimulus that was an untested or no response greeble and that followed a valid cue	GRE	V	1	0.87224	UT	UT	UT	UT
88.0018	1.0	Valid HC-Hit Cue: valid cue where following object was a subsequent high confidence hit	OBJ	V	1	0.70374	HC-HIT	 2.1206	0	0.96672
92.0018	0.5	Valid HC-Hit Obj: object that was a subsequent high confidence hit and that followed a valid cue	OBJ	V	1	0.70374	HC-HIT	 2.1206	0	0.96672
94.0011	1.0	Valid HC-Hit Cue: valid cue where following object was a subsequent high confidence hit	OBJ	V	1	0.88261	HC-HIT	 1.7883	1	1.6982
98.0011	0.5	Valid HC-Hit Obj: object that was a subsequent high confidence hit and that followed a valid cue	OBJ	V	1	0.88261	HC-HIT	 1.7883	1	1.6982
100.0012	1.0	Valid Miss Cue: valid cue where following object was a subsequent miss	OBJ	V	1	 1.1414	LC-MISS	 1.3902	UT	UT
102.0012	0.5	Valid Miss Obj: object that was a subsequent miss and that followed a valid cue	OBJ	V	1	 1.1414	LC-MISS	 1.3902	UT	UT
104.0014	1.0	Invalid HC-Hit Cue: invalid cue where following object was a subsequent high confidence hit	OBJ	NV	1	 0.9413	HC-HIT	0.99431	1	0.66315
110.0014	0.5	Invalid HC-Hit Obj: object that was a subsequent high confidence hit and that followed an invalid cue	OBJ	NV	1	 0.9413	HC-HIT	0.99431	1	0.66315
112.0013	1.0	Valid Other Obj Cue: valid cue where following stimulus was an untested or no response object	OBJ	V	1	0.78043	UT	UT	UT	UT
118.0013	0.5	Valid Other Obj: stimulus that was an untested or no response object and that followed a valid cue	OBJ	V	1	0.78043	UT	UT	UT	UT
120.0014	1.0	Valid Other Greeble Cue: valid cue where following stimulus was an untested or no response greeble	GRE	V	1	0.82424	UT	UT	UT	UT
122.0014	0.5	Valid Other Greeble: stimulus that was an untested or no response greeble and that followed a valid cue	GRE	V	1	0.82424	UT	UT	UT	UT
124.0018	1.0	Valid Miss Cue: valid cue where following object was a subsequent miss	OBJ	V	1	0.72062	LC-MISS	 2.5967	UT	UT
130.0018	0.5	Valid Miss Obj: object that was a subsequent miss and that followed a valid cue	OBJ	V	1	0.72062	LC-MISS	 2.5967	UT	UT
132.0014	1.0	Invalid Miss Cue: invalid cue where following object was a subsequent miss	OBJ	NV	1	 1.2195	LC-MISS	 1.2887	UT	UT
134.0014	0.5	Invalid Miss Obj: object that was a subsequent miss and that followed an invalid cue	OBJ	NV	1	 1.2195	LC-MISS	 1.2887	UT	UT
138.0019	1.0	Valid Other Greeble Cue: valid cue where following stimulus was an untested or no response greeble	GRE	V	1	0.72118	UT	UT	UT	UT
144.0019	0.5	Valid Other Greeble: stimulus that was an untested or no response greeble and that followed a valid cue	GRE	V	1	0.72118	UT	UT	UT	UT
146.0016	1.0	Valid Miss Cue: valid cue where following object was a subsequent miss	OBJ	V	1	 1.1805	HC-MISS	 1.2016	UT	UT
148.0016	0.5	Valid Miss Obj: object that was a subsequent miss and that followed a valid cue	OBJ	V	1	 1.1805	HC-MISS	 1.2016	UT	UT
150.0011	1.0	Valid Miss Cue: valid cue where following object was a subsequent miss	OBJ	V	1	 1.8364	HC-MISS	 1.8343	UT	UT
156.0011	0.5	Valid Miss Obj: object that was a subsequent miss and that followed a valid cue	OBJ	V	1	 1.8364	HC-MISS	 1.8343	UT	UT
158.0008	1.0	Valid HC-Hit Cue: valid cue where following object was a subsequent high confidence hit	OBJ	V	1	0.71242	HC-HIT	 1.0229	1	1.8634
160.0008	0.5	Valid HC-Hit Obj: object that was a subsequent high confidence hit and that followed a valid cue	OBJ	V	1	0.71242	HC-HIT	 1.0229	1	1.8634
162.0016	1.0	Valid Other Greeble Cue: valid cue where following stimulus was an untested or no response greeble	GRE	V	1	0.60953	UT	UT	UT	UT
166.0016	0.5	Valid Other Greeble: stimulus that was an untested or no response greeble and that followed a valid cue	GRE	V	1	0.60953	UT	UT	UT	UT
168.0019	1.0	Valid HC-Hit Cue: valid cue where following object was a subsequent high confidence hit	OBJ	V	1	0.66017	HC-HIT	 1.6666	0	0.54971
172.0019	0.5	Valid HC-Hit Obj: object that was a subsequent high confidence hit and that followed a valid cue	OBJ	V	1	0.66017	HC-HIT	 1.6666	0	0.54971
174.0017	1.0	Valid Other Greeble Cue: valid cue where following stimulus was an untested or no response greeble	GRE	V	1	0.70985	UT	UT	UT	UT
178.0017	0.5	Valid Other Greeble: stimulus that was an untested or no response greeble and that followed a valid cue	GRE	V	1	0.70985	UT	UT	UT	UT
180.0015	1.0	Valid Miss Cue: valid cue where following object was a subsequent miss	OBJ	V	1	0.84733	HC-MISS	 3.7021	UT	UT
184.0015	0.5	Valid Miss Obj: object that was a subsequent miss and that followed a valid cue	OBJ	V	1	0.84733	HC-MISS	 3.7021	UT	UT
186.0018	1.0	Invalid Miss Cue: invalid cue where following object was a subsequent miss	OBJ	NV	1	 1.7704	HC-MISS	 2.0212	UT	UT
188.0018	0.5	Invalid Miss Obj: object that was a subsequent miss and that followed an invalid cue	OBJ	NV	1	 1.7704	HC-MISS	 2.0212	UT	UT
190.0009	1.0	Valid Miss Cue: valid cue where following object was a subsequent miss	OBJ	V	1	 1.3909	LC-MISS	 1.7562	UT	UT
192.0009	0.5	Valid Miss Obj: object that was a subsequent miss and that followed a valid cue	OBJ	V	1	 1.3909	LC-MISS	 1.7562	UT	UT
194.002	1.0	Valid Other Obj Cue: valid cue where following stimulus was an untested or no response object	OBJ	V	1	  1.119	UT	UT	UT	UT
200.002	0.5	Valid Other Obj: stimulus that was an untested or no response object and that followed a valid cue	OBJ	V	1	  1.119	UT	UT	UT	UT
202.0012	1.0	Valid Other Greeble Cue: valid cue where following stimulus was an untested or no response greeble	GRE	V	1	0.82203	UT	UT	UT	UT
208.0012	0.5	Valid Other Greeble: stimulus that was an untested or no response greeble and that followed a valid cue	GRE	V	1	0.82203	UT	UT	UT	UT
210.0011	1.0	Valid HC-Hit Cue: valid cue where following object was a subsequent high confidence hit	OBJ	V	1	0.72797	HC-HIT	 1.2742	0	1.3846
214.0011	0.5	Valid HC-Hit Obj: object that was a subsequent high confidence hit and that followed a valid cue	OBJ	V	1	0.72797	HC-HIT	 1.2742	0	1.3846
218.0014	1.0	Invalid LC-Hit Cue: invalid cue where following object was a subsequent low confidence hit	OBJ	NV	1	  1.639	LC-HIT	  1.972	0	1.0453
222.0014	0.5	Invalid LC-Hit Obj: object that was a subsequent low confidence hit and that followed an invalid cue	OBJ	NV	1	  1.639	LC-HIT	  1.972	0	1.0453
224.002	1.0	Valid HC-Hit Cue: valid cue where following object was a subsequent high confidence hit	OBJ	V	1	0.96929	HC-HIT	0.71862	0	0.066635
228.002	0.5	Valid HC-Hit Obj: object that was a subsequent high confidence hit and that followed a valid cue	OBJ	V	1	0.96929	HC-HIT	0.71862	0	0.066635
230.0008	1.0	Valid Miss Cue: valid cue where following object was a subsequent miss	OBJ	V	1	0.74408	HC-MISS	 1.6114	UT	UT
236.0008	0.5	Valid Miss Obj: object that was a subsequent miss and that followed a valid cue	OBJ	V	1	0.74408	HC-MISS	 1.6114	UT	UT
238.0007	1.0	Valid Other Greeble Cue: valid cue where following stimulus was an untested or no response greeble	GRE	V	1	0.95686	UT	UT	UT	UT
240.0007	0.5	Valid Other Greeble: stimulus that was an untested or no response greeble and that followed a valid cue	GRE	V	1	0.95686	UT	UT	UT	UT
242.0016	1.0	Invalid LC-Hit Cue: invalid cue where following object was a subsequent low confidence hit	OBJ	NV	1	0.71699	LC-HIT	 1.9622	1	0.9075
246.0016	0.5	Invalid LC-Hit Obj: object that was a subsequent low confidence hit and that followed an invalid cue	OBJ	NV	1	0.71699	LC-HIT	 1.9622	1	0.9075
250.0011	1.0	Valid Other Greeble Cue: valid cue where following stimulus was an untested or no response greeble	GRE	V	1	0.73996	UT	UT	UT	UT
256.0011	0.5	Valid Other Greeble: stimulus that was an untested or no response greeble and that followed a valid cue	GRE	V	1	0.73996	UT	UT	UT	UT
258.002	1.0	Valid HC-Hit Cue: valid cue where following object was a subsequent high confidence hit	OBJ	V	1	0.75086	HC-HIT	 2.0371	1	0.60396
260.002	0.5	Valid HC-Hit Obj: object that was a subsequent high confidence hit and that followed a valid cue	OBJ	V	1	0.75086	HC-HIT	 2.0371	1	0.60396
262.002	1.0	Valid HC-Hit Cue: valid cue where following object was a subsequent high confidence hit	OBJ	V	1	0.73133	HC-HIT	 1.5299	1	0.45261
264.002	0.5	Valid HC-Hit Obj: object that was a subsequent high confidence hit and that followed a valid cue	OBJ	V	1	0.73133	HC-HIT	 1.5299	1	0.45261
266.0018	1.0	Valid Other Obj Cue: valid cue where following stimulus was an untested or no response object	OBJ	V	1	 1.7467	UT	UT	UT	UT
272.0018	0.5	Valid Other Obj: stimulus that was an untested or no response object and that followed a valid cue	OBJ	V	1	 1.7467	UT	UT	UT	UT
274.0009	1.0	Valid Miss Cue: valid cue where following object was a subsequent miss	OBJ	V	1	 1.4606	LC-MISS	 1.2865	UT	UT
278.0009	0.5	Valid Miss Obj: object that was a subsequent miss and that followed a valid cue	OBJ	V	1	 1.4606	LC-MISS	 1.2865	UT	UT
280.0017	1.0	Invalid HC-Hit Cue: invalid cue where following object was a subsequent high confidence hit	OBJ	NV	1	 2.3333	HC-HIT	 1.2823	0	1.0879
286.0017	0.5	Invalid HC-Hit Obj: object that was a subsequent high confidence hit and that followed an invalid cue	OBJ	NV	1	 2.3333	HC-HIT	 1.2823	0	1.0879
290.0016	1.0	Valid Other Greeble Cue: valid cue where following stimulus was an untested or no response greeble	GRE	V	1	 0.7234	UT	UT	UT	UT
294.0016	0.5	Valid Other Greeble: stimulus that was an untested or no response greeble and that followed a valid cue	GRE	V	1	 0.7234	UT	UT	UT	UT
296.0014	1.0	Invalid HC-Hit Cue: invalid cue where following object was a subsequent high confidence hit	OBJ	NV	1	0.87046	HC-HIT	 1.8519	0	1.5995
300.0014	0.5	Invalid HC-Hit Obj: object that was a subsequent high confidence hit and that followed an invalid cue	OBJ	NV	1	0.87046	HC-HIT	 1.8519	0	1.5995
302.0016	1.0	Valid Other Greeble Cue: valid cue where following stimulus was an untested or no response greeble	GRE	V	NR	NR	UT	UT	UT	UT
308.0016	0.5	Valid Other Greeble: stimulus that was an untested or no response greeble and that followed a valid cue	GRE	V	NR	NR	UT	UT	UT	UT
312.0022	1.0	Valid HC-Hit Cue: valid cue where following object was a subsequent high confidence hit	OBJ	V	1	 1.0435	HC-HIT	 1.0039	1	0.60294
318.0022	0.5	Valid HC-Hit Obj: object that was a subsequent high confidence hit and that followed a valid cue	OBJ	V	1	 1.0435	HC-HIT	 1.0039	1	0.60294
320.0011	1.0	Valid Miss Cue: valid cue where following object was a subsequent miss	OBJ	V	1	 2.7541	HC-MISS	0.92856	UT	UT
326.0011	0.5	Valid Miss Obj: object that was a subsequent miss and that followed a valid cue	OBJ	V	1	 2.7541	HC-MISS	0.92856	UT	UT
330.0015	1.0	Valid Other Greeble Cue: valid cue where following stimulus was an untested or no response greeble	GRE	V	NR	NR	UT	UT	UT	UT
336.0015	0.5	Valid Other Greeble: stimulus that was an untested or no response greeble and that followed a valid cue	GRE	V	NR	NR	UT	UT	UT	UT
338.0011	1.0	Valid LC-Hit Cue: valid cue where following object was a subsequent low confidence hit	OBJ	V	1	0.76454	LC-HIT	  2.318	0	0.75121
340.0011	0.5	Valid LC-Hit Obj: object that was a subsequent low confidence hit and that followed a valid cue	OBJ	V	1	0.76454	LC-HIT	  2.318	0	0.75121
342.001	1.0	Invalid Other Greeble Cue: invalid cue where following stimulus was an untested or no response greeble	GRE	NV	1	0.66925	UT	UT	UT	UT
346.001	0.5	Invalid Other Greeble: stimulus that was an untested or no response greeble and that followed a invalid cue	GRE	NV	1	0.66925	UT	UT	UT	UT
348.0017	1.0	Valid Miss Cue: valid cue where following object was a subsequent miss	OBJ	V	1	0.75859	LC-MISS	 1.6965	UT	UT
352.0017	0.5	Valid Miss Obj: object that was a subsequent miss and that followed a valid cue	OBJ	V	1	0.75859	LC-MISS	 1.6965	UT	UT
356.0016	1.0	Valid Other Greeble Cue: valid cue where following stimulus was an untested or no response greeble	GRE	V	1	0.68607	UT	UT	UT	UT
360.0016	0.5	Valid Other Greeble: stimulus that was an untested or no response greeble and that followed a valid cue	GRE	V	1	0.68607	UT	UT	UT	UT
362.0019	1.0	Invalid Other Greeble Cue: invalid cue where following stimulus was an untested or no response greeble	GRE	NV	1	0.76942	UT	UT	UT	UT
364.0019	0.5	Invalid Other Greeble: stimulus that was an untested or no response greeble and that followed a invalid cue	GRE	NV	1	0.76942	UT	UT	UT	UT
