onset	duration	trial_type	Object_Cond	Validity_Cond	Obj_Accuracy	Obj_Acc_RT	Subseq_Recog	Subseq_Recog_RT	Subseq_Source_Mem_Acc	Subseq_Source_Mem_Acc_RT
4.000	1.000	Valid Other Obj Cue: valid cue where following stimulus was an untested or no response object	OBJ	V	1	0.779	UT	UT	UT	UT
10.000	0.500	Valid Other Obj: stimulus that was an untested or no response object and that followed a valid cue	OBJ	V	1	0.779	UT	UT	UT	UT
12.001	1.000	Valid HC-Hit Cue: valid cue where following object was a subsequent high confidence hit	OBJ	V	1	1.032	HC-HIT	 1.1246	0	0.90867
14.001	0.500	Valid HC-Hit Obj: object that was a subsequent high confidence hit and that followed a valid cue	OBJ	V	1	1.032	HC-HIT	 1.1246	0	0.90867
16.002	1.000	Valid Other Obj Cue: valid cue where following stimulus was an untested or no response object	OBJ	V	1	0.666	UT	UT	UT	UT
20.002	0.500	Valid Other Obj: stimulus that was an untested or no response object and that followed a valid cue	OBJ	V	1	0.666	UT	UT	UT	UT
22.001	1.000	Invalid Miss Cue: invalid cue where following object was a subsequent miss	OBJ	NV	1	1.285	LC-MISS	 1.4358	UT	UT
24.001	0.500	Invalid Miss Obj: object that was a subsequent miss and that followed an invalid cue	OBJ	NV	1	1.285	LC-MISS	 1.4358	UT	UT
30.002	1.000	Valid LC-Hit Cue: valid cue where following object was a subsequent low confidence hit	OBJ	V	1	0.780	LC-HIT	 3.4665	0	0.51179
34.002	0.500	Valid LC-Hit Obj: object that was a subsequent low confidence hit and that followed a valid cue	OBJ	V	1	0.780	LC-HIT	 3.4665	0	0.51179
36.002	1.000	Valid Miss Cue: valid cue where following object was a subsequent miss	OBJ	V	1	0.834	HC-MISS	0.72779	UT	UT
42.002	0.500	Valid Miss Obj: object that was a subsequent miss and that followed a valid cue	OBJ	V	1	0.834	HC-MISS	0.72779	UT	UT
46.001	1.000	Valid Other Greeble Cue: valid cue where following stimulus was an untested or no response greeble	GRE	V	1	0.693	UT	UT	UT	UT
48.001	0.500	Valid Other Greeble: stimulus that was an untested or no response greeble and that followed a valid cue	GRE	V	1	0.693	UT	UT	UT	UT
50.002	1.000	Valid HC-Hit Cue: valid cue where following object was a subsequent high confidence hit	OBJ	V	1	0.620	HC-HIT	 1.2001	1	0.27844
56.002	0.500	Valid HC-Hit Obj: object that was a subsequent high confidence hit and that followed a valid cue	OBJ	V	1	0.620	HC-HIT	 1.2001	1	0.27844
58.001	1.000	Valid Other Greeble Cue: valid cue where following stimulus was an untested or no response greeble	GRE	V	1	0.683	UT	UT	UT	UT
64.001	0.500	Valid Other Greeble: stimulus that was an untested or no response greeble and that followed a valid cue	GRE	V	1	0.683	UT	UT	UT	UT
66.002	1.000	Valid Other Greeble Cue: valid cue where following stimulus was an untested or no response greeble	GRE	V	1	0.811	UT	UT	UT	UT
72.002	0.500	Valid Other Greeble: stimulus that was an untested or no response greeble and that followed a valid cue	GRE	V	1	0.811	UT	UT	UT	UT
76.002	1.000	Invalid LC-Hit Cue: invalid cue where following object was a subsequent low confidence hit	OBJ	NV	1	1.139	LC-HIT	0.97135	1	0.95711
80.002	0.500	Invalid LC-Hit Obj: object that was a subsequent low confidence hit and that followed an invalid cue	OBJ	NV	1	1.139	LC-HIT	0.97135	1	0.95711
82.001	1.000	Valid Miss Cue: valid cue where following object was a subsequent miss	OBJ	V	1	0.626	HC-MISS	0.95781	UT	UT
88.001	0.500	Valid Miss Obj: object that was a subsequent miss and that followed a valid cue	OBJ	V	1	0.626	HC-MISS	0.95781	UT	UT
90.001	1.000	Valid Miss Cue: valid cue where following object was a subsequent miss	OBJ	V	1	0.718	LC-MISS	 1.0422	UT	UT
92.001	0.500	Valid Miss Obj: object that was a subsequent miss and that followed a valid cue	OBJ	V	1	0.718	LC-MISS	 1.0422	UT	UT
94.001	1.000	Valid LC-Hit Cue: valid cue where following object was a subsequent low confidence hit	OBJ	V	1	0.582	LC-HIT	 1.6903	0	0.64882
100.001	0.500	Valid LC-Hit Obj: object that was a subsequent low confidence hit and that followed a valid cue	OBJ	V	1	0.582	LC-HIT	 1.6903	0	0.64882
102.001	1.000	Valid Other Obj Cue: valid cue where following stimulus was an untested or no response object	OBJ	V	1	0.693	UT	UT	UT	UT
108.001	0.500	Valid Other Obj: stimulus that was an untested or no response object and that followed a valid cue	OBJ	V	1	0.693	UT	UT	UT	UT
110.002	1.000	Valid HC-Hit Cue: valid cue where following object was a subsequent high confidence hit	OBJ	V	1	0.679	HC-HIT	 1.0373	1	0.33862
114.002	0.500	Valid HC-Hit Obj: object that was a subsequent high confidence hit and that followed a valid cue	OBJ	V	1	0.679	HC-HIT	 1.0373	1	0.33862
116.002	1.000	Valid Other Greeble Cue: valid cue where following stimulus was an untested or no response greeble	GRE	V	1	0.767	UT	UT	UT	UT
122.002	0.500	Valid Other Greeble: stimulus that was an untested or no response greeble and that followed a valid cue	GRE	V	1	0.767	UT	UT	UT	UT
124.001	1.000	Valid Miss Cue: valid cue where following object was a subsequent miss	OBJ	V	1	0.720	HC-MISS	 1.6011	UT	UT
128.001	0.500	Valid Miss Obj: object that was a subsequent miss and that followed a valid cue	OBJ	V	1	0.720	HC-MISS	 1.6011	UT	UT
130.001	1.000	Invalid HC-Hit Cue: invalid cue where following object was a subsequent high confidence hit	OBJ	NV	1	0.728	HC-HIT	 1.8887	1	0.14834
136.001	0.500	Invalid HC-Hit Obj: object that was a subsequent high confidence hit and that followed an invalid cue	OBJ	NV	1	0.728	HC-HIT	 1.8887	1	0.14834
140.001	1.000	Valid Miss Cue: valid cue where following object was a subsequent miss	OBJ	V	1	1.097	HC-MISS	 1.4529	UT	UT
142.001	0.500	Valid Miss Obj: object that was a subsequent miss and that followed a valid cue	OBJ	V	1	1.097	HC-MISS	 1.4529	UT	UT
144.002	1.000	Valid LC-Hit Cue: valid cue where following object was a subsequent low confidence hit	OBJ	V	1	0.606	LC-HIT	 3.0434	1	0.47341
146.002	0.500	Valid LC-Hit Obj: object that was a subsequent low confidence hit and that followed a valid cue	OBJ	V	1	0.606	LC-HIT	 3.0434	1	0.47341
148.002	1.000	Valid Other Greeble Cue: valid cue where following stimulus was an untested or no response greeble	GRE	V	1	0.741	UT	UT	UT	UT
154.002	0.500	Valid Other Greeble: stimulus that was an untested or no response greeble and that followed a valid cue	GRE	V	1	0.741	UT	UT	UT	UT
156.002	1.000	Valid HC-Hit Cue: valid cue where following object was a subsequent high confidence hit	OBJ	V	1	0.720	HC-HIT	0.74474	1	0.37021
160.002	0.500	Valid HC-Hit Obj: object that was a subsequent high confidence hit and that followed a valid cue	OBJ	V	1	0.720	HC-HIT	0.74474	1	0.37021
164.001	1.000	Valid Other Obj Cue: valid cue where following stimulus was an untested or no response object	OBJ	V	1	0.817	UT	UT	UT	UT
166.001	0.500	Valid Other Obj: stimulus that was an untested or no response object and that followed a valid cue	OBJ	V	1	0.817	UT	UT	UT	UT
168.001	1.000	Valid Other Greeble Cue: valid cue where following stimulus was an untested or no response greeble	GRE	V	1	0.732	UT	UT	UT	UT
170.001	0.500	Valid Other Greeble: stimulus that was an untested or no response greeble and that followed a valid cue	GRE	V	1	0.732	UT	UT	UT	UT
172.001	1.000	Valid Other Greeble Cue: valid cue where following stimulus was an untested or no response greeble	GRE	V	1	0.628	UT	UT	UT	UT
178.001	0.500	Valid Other Greeble: stimulus that was an untested or no response greeble and that followed a valid cue	GRE	V	1	0.628	UT	UT	UT	UT
180.002	1.000	Invalid Miss Cue: invalid cue where following object was a subsequent miss	OBJ	NV	1	1.060	HC-MISS	 1.1145	UT	UT
186.002	0.500	Invalid Miss Obj: object that was a subsequent miss and that followed an invalid cue	OBJ	NV	1	1.060	HC-MISS	 1.1145	UT	UT
188.002	1.000	Valid Miss Cue: valid cue where following object was a subsequent miss	OBJ	V	1	0.735	LC-MISS	 1.8604	UT	UT
190.002	0.500	Valid Miss Obj: object that was a subsequent miss and that followed a valid cue	OBJ	V	1	0.735	LC-MISS	 1.8604	UT	UT
192.001	1.000	Valid Miss Cue: valid cue where following object was a subsequent miss	OBJ	V	1	1.004	LC-MISS	 3.0502	UT	UT
194.001	0.500	Valid Miss Obj: object that was a subsequent miss and that followed a valid cue	OBJ	V	1	1.004	LC-MISS	 3.0502	UT	UT
198.002	1.000	Valid Other Greeble Cue: valid cue where following stimulus was an untested or no response greeble	GRE	V	1	0.642	UT	UT	UT	UT
202.002	0.500	Valid Other Greeble: stimulus that was an untested or no response greeble and that followed a valid cue	GRE	V	1	0.642	UT	UT	UT	UT
204.001	1.000	Valid Miss Cue: valid cue where following object was a subsequent miss	OBJ	V	1	2.948	HC-MISS	 1.4955	UT	UT
208.001	0.500	Valid Miss Obj: object that was a subsequent miss and that followed a valid cue	OBJ	V	1	2.948	HC-MISS	 1.4955	UT	UT
212.001	1.000	Valid LC-Hit Cue: valid cue where following object was a subsequent low confidence hit	OBJ	V	1	0.652	LC-HIT	 1.7673	0	1.198
216.001	0.500	Valid LC-Hit Obj: object that was a subsequent low confidence hit and that followed a valid cue	OBJ	V	1	0.652	LC-HIT	 1.7673	0	1.198
218.001	1.000	Valid Other Greeble Cue: valid cue where following stimulus was an untested or no response greeble	GRE	V	1	0.645	UT	UT	UT	UT
222.001	0.500	Valid Other Greeble: stimulus that was an untested or no response greeble and that followed a valid cue	GRE	V	1	0.645	UT	UT	UT	UT
224.001	1.000	Invalid Other Greeble Cue: invalid cue where following stimulus was an untested or no response greeble	GRE	NV	1	0.526	UT	UT	UT	UT
228.001	0.500	Invalid Other Greeble: stimulus that was an untested or no response greeble and that followed a invalid cue	GRE	NV	1	0.526	UT	UT	UT	UT
230.001	1.000	Valid HC-Hit Cue: valid cue where following object was a subsequent high confidence hit	OBJ	V	1	0.577	HC-HIT	0.93133	0	0.53579
234.001	0.500	Valid HC-Hit Obj: object that was a subsequent high confidence hit and that followed a valid cue	OBJ	V	1	0.577	HC-HIT	0.93133	0	0.53579
240.001	1.000	Valid LC-Hit Cue: valid cue where following object was a subsequent low confidence hit	OBJ	V	1	0.558	LC-HIT	  1.532	0	0.43782
244.001	0.500	Valid LC-Hit Obj: object that was a subsequent low confidence hit and that followed a valid cue	OBJ	V	1	0.558	LC-HIT	  1.532	0	0.43782
246.001	1.000	Invalid HC-Hit Cue: invalid cue where following object was a subsequent high confidence hit	OBJ	NV	1	0.640	HC-HIT	 1.0919	0	0.223
250.001	0.500	Invalid HC-Hit Obj: object that was a subsequent high confidence hit and that followed an invalid cue	OBJ	NV	1	0.640	HC-HIT	 1.0919	0	0.223
252.001	1.000	Valid HC-Hit Cue: valid cue where following object was a subsequent high confidence hit	OBJ	V	1	0.721	HC-HIT	0.99455	1	1.1545
256.001	0.500	Valid HC-Hit Obj: object that was a subsequent high confidence hit and that followed a valid cue	OBJ	V	1	0.721	HC-HIT	0.99455	1	1.1545
258.001	1.000	Valid Other Greeble Cue: valid cue where following stimulus was an untested or no response greeble	GRE	V	1	0.657	UT	UT	UT	UT
264.001	0.500	Valid Other Greeble: stimulus that was an untested or no response greeble and that followed a valid cue	GRE	V	1	0.657	UT	UT	UT	UT
266.001	1.000	Valid Miss Cue: valid cue where following object was a subsequent miss	OBJ	V	1	1.373	HC-MISS	0.71568	UT	UT
268.001	0.500	Valid Miss Obj: object that was a subsequent miss and that followed a valid cue	OBJ	V	1	1.373	HC-MISS	0.71568	UT	UT
270.001	1.000	Invalid Miss Cue: invalid cue where following object was a subsequent miss	OBJ	NV	1	1.081	HC-MISS	 1.3133	UT	UT
272.001	0.500	Invalid Miss Obj: object that was a subsequent miss and that followed an invalid cue	OBJ	NV	1	1.081	HC-MISS	 1.3133	UT	UT
276.001	1.000	Valid Other Obj Cue: valid cue where following stimulus was an untested or no response object	OBJ	V	1	0.642	UT	UT	UT	UT
278.001	0.500	Valid Other Obj: stimulus that was an untested or no response object and that followed a valid cue	OBJ	V	1	0.642	UT	UT	UT	UT
280.001	1.000	Valid Other Greeble Cue: valid cue where following stimulus was an untested or no response greeble	GRE	V	1	0.703	UT	UT	UT	UT
282.001	0.500	Valid Other Greeble: stimulus that was an untested or no response greeble and that followed a valid cue	GRE	V	1	0.703	UT	UT	UT	UT
284.002	1.000	Valid Miss Cue: valid cue where following object was a subsequent miss	OBJ	V	1	0.846	HC-MISS	  3.245	UT	UT
290.002	0.500	Valid Miss Obj: object that was a subsequent miss and that followed a valid cue	OBJ	V	1	0.846	HC-MISS	  3.245	UT	UT
292.001	1.000	Valid Miss Cue: valid cue where following object was a subsequent miss	OBJ	V	1	0.810	HC-MISS	0.84934	UT	UT
294.001	0.500	Valid Miss Obj: object that was a subsequent miss and that followed a valid cue	OBJ	V	1	0.810	HC-MISS	0.84934	UT	UT
296.001	1.000	Valid Miss Cue: valid cue where following object was a subsequent miss	OBJ	V	1	0.636	LC-MISS	 1.3296	UT	UT
300.001	0.500	Valid Miss Obj: object that was a subsequent miss and that followed a valid cue	OBJ	V	1	0.636	LC-MISS	 1.3296	UT	UT
302.001	1.000	Invalid Miss Cue: invalid cue where following object was a subsequent miss	OBJ	NV	1	0.765	LC-MISS	0.88113	UT	UT
306.001	0.500	Invalid Miss Obj: object that was a subsequent miss and that followed an invalid cue	OBJ	NV	1	0.765	LC-MISS	0.88113	UT	UT
310.001	1.000	Valid Miss Cue: valid cue where following object was a subsequent miss	OBJ	V	1	0.618	HC-MISS	0.83202	UT	UT
316.001	0.500	Valid Miss Obj: object that was a subsequent miss and that followed a valid cue	OBJ	V	1	0.618	HC-MISS	0.83202	UT	UT
318.002	1.000	Valid HC-Hit Cue: valid cue where following object was a subsequent high confidence hit	OBJ	V	1	0.942	HC-HIT	 1.0343	0	0.23148
320.002	0.500	Valid HC-Hit Obj: object that was a subsequent high confidence hit and that followed a valid cue	OBJ	V	1	0.942	HC-HIT	 1.0343	0	0.23148
324.001	1.000	Invalid Other Greeble Cue: invalid cue where following stimulus was an untested or no response greeble	GRE	NV	1	0.688	UT	UT	UT	UT
326.001	0.500	Invalid Other Greeble: stimulus that was an untested or no response greeble and that followed a invalid cue	GRE	NV	1	0.688	UT	UT	UT	UT
328.001	1.000	Valid Other Greeble Cue: valid cue where following stimulus was an untested or no response greeble	GRE	V	1	0.671	UT	UT	UT	UT
334.001	0.500	Valid Other Greeble: stimulus that was an untested or no response greeble and that followed a valid cue	GRE	V	1	0.671	UT	UT	UT	UT
338.001	1.000	Valid Other Greeble Cue: valid cue where following stimulus was an untested or no response greeble	GRE	V	1	0.577	UT	UT	UT	UT
340.001	0.500	Valid Other Greeble: stimulus that was an untested or no response greeble and that followed a valid cue	GRE	V	1	0.577	UT	UT	UT	UT
342.002	1.000	Valid HC-Hit Cue: valid cue where following object was a subsequent high confidence hit	OBJ	V	1	0.873	HC-HIT	 1.0298	0	0.42075
348.002	0.500	Valid HC-Hit Obj: object that was a subsequent high confidence hit and that followed a valid cue	OBJ	V	1	0.873	HC-HIT	 1.0298	0	0.42075
350.002	1.000	Valid HC-Hit Cue: valid cue where following object was a subsequent high confidence hit	OBJ	V	1	0.707	HC-HIT	 1.3539	1	0.93142
354.002	0.500	Valid HC-Hit Obj: object that was a subsequent high confidence hit and that followed a valid cue	OBJ	V	1	0.707	HC-HIT	 1.3539	1	0.93142
356.001	1.000	Valid Other Greeble Cue: valid cue where following stimulus was an untested or no response greeble	GRE	V	1	0.662	UT	UT	UT	UT
360.001	0.500	Valid Other Greeble: stimulus that was an untested or no response greeble and that followed a valid cue	GRE	V	1	0.662	UT	UT	UT	UT
362.002	1.000	Invalid Miss Cue: invalid cue where following object was a subsequent miss	OBJ	NV	1	0.887	HC-MISS	 1.0059	UT	UT
364.002	0.500	Invalid Miss Obj: object that was a subsequent miss and that followed an invalid cue	OBJ	NV	1	0.887	HC-MISS	 1.0059	UT	UT
