onset	duration	trial_type	Response	Stimulus	response_time
4.766	0.200	auditory standard stimulus presentation	n/a	n/a	n/a
6.786	0.200	auditory standard stimulus presentation	n/a	n/a	n/a
9.020	0.200	auditory standard stimulus presentation	n/a	n/a	n/a
11.055	0.200	auditory standard stimulus presentation	0.000	standard	n/a
13.686	0.200	auditory standard stimulus presentation	0.000	standard	n/a
16.532	0.200	auditory standard stimulus presentation	0.000	standard	n/a
18.964	0.200	auditory standard stimulus presentation	0.000	standard	n/a
20.999	0.341	behavioral response time following auditory oddball stimulus onset	1.000	target	n/a
20.999	0.200	auditory oddball stimulus presentation	1.000	target	n/a
23.629	0.200	auditory standard stimulus presentation	0.000	standard	n/a
26.261	0.200	auditory standard stimulus presentation	0.000	standard	n/a
28.692	0.200	auditory standard stimulus presentation	0.000	standard	n/a
31.126	0.200	auditory oddball stimulus presentation	1.000	target	n/a
31.126	0.356	behavioral response time following auditory oddball stimulus onset	1.000	target	n/a
33.160	0.200	auditory oddball stimulus presentation	1.000	target	n/a
33.160	0.419	behavioral response time following auditory oddball stimulus onset	1.000	target	n/a
36.189	0.200	auditory standard stimulus presentation	0.000	standard	n/a
38.240	0.200	auditory standard stimulus presentation	0.000	standard	n/a
40.275	0.200	auditory standard stimulus presentation	0.000	standard	n/a
42.923	0.200	auditory standard stimulus presentation	0.000	standard	n/a
45.753	0.200	auditory standard stimulus presentation	0.000	standard	n/a
48.796	0.200	auditory standard stimulus presentation	0.000	standard	n/a
51.841	0.200	auditory standard stimulus presentation	0.000	standard	n/a
53.893	0.200	auditory standard stimulus presentation	0.000	standard	n/a
56.126	0.200	auditory standard stimulus presentation	0.000	standard	n/a
58.757	0.200	auditory standard stimulus presentation	0.000	standard	n/a
61.802	0.200	auditory standard stimulus presentation	0.000	standard	n/a
64.632	0.303	behavioral response time following auditory oddball stimulus onset	1.000	target	n/a
64.632	0.200	auditory oddball stimulus presentation	1.000	target	n/a
66.882	0.200	auditory standard stimulus presentation	0.000	standard	n/a
69.116	0.200	auditory oddball stimulus presentation	1.000	target	n/a
69.116	0.388	behavioral response time following auditory oddball stimulus onset	1.000	target	n/a
71.365	0.304	behavioral response time following auditory oddball stimulus onset	1.000	target	n/a
71.365	0.200	auditory oddball stimulus presentation	1.000	target	n/a
73.401	0.200	auditory standard stimulus presentation	0.000	standard	n/a
76.429	0.300	behavioral response time following auditory oddball stimulus onset	1.000	target	n/a
76.429	0.200	auditory oddball stimulus presentation	1.000	target	n/a
78.663	0.200	auditory standard stimulus presentation	0.000	standard	n/a
80.947	0.200	auditory standard stimulus presentation	0.000	standard	n/a
83.181	0.200	auditory standard stimulus presentation	0.000	standard	n/a
85.216	0.200	auditory standard stimulus presentation	0.000	standard	n/a
87.647	0.200	auditory standard stimulus presentation	0.000	standard	n/a
89.882	0.200	auditory standard stimulus presentation	0.000	standard	n/a
92.116	0.200	auditory standard stimulus presentation	0.000	standard	n/a
94.564	0.200	auditory oddball stimulus presentation	1.000	target	n/a
94.564	0.322	behavioral response time following auditory oddball stimulus onset	1.000	target	n/a
97.393	0.200	auditory standard stimulus presentation	0.000	standard	n/a
100.222	0.200	auditory standard stimulus presentation	0.000	standard	n/a
102.870	0.200	auditory oddball stimulus presentation	1.000	target	n/a
102.870	0.316	behavioral response time following auditory oddball stimulus onset	1.000	target	n/a
105.517	0.200	auditory standard stimulus presentation	0.000	standard	n/a
108.348	0.200	auditory standard stimulus presentation	0.000	standard	n/a
111.375	0.200	auditory standard stimulus presentation	0.000	standard	n/a
113.807	0.200	auditory standard stimulus presentation	0.000	standard	n/a
116.041	0.200	auditory oddball stimulus presentation	1.000	target	n/a
116.041	0.317	behavioral response time following auditory oddball stimulus onset	1.000	target	n/a
118.473	0.200	auditory standard stimulus presentation	0.000	standard	n/a
121.304	0.200	auditory standard stimulus presentation	0.000	standard	n/a
123.537	0.200	auditory standard stimulus presentation	0.000	standard	n/a
126.565	0.200	auditory standard stimulus presentation	0.000	standard	n/a
129.410	0.200	auditory standard stimulus presentation	0.000	standard	n/a
132.456	0.200	auditory standard stimulus presentation	0.000	standard	n/a
134.887	0.318	behavioral response time following auditory oddball stimulus onset	1.000	target	n/a
134.887	0.200	auditory oddball stimulus presentation	1.000	target	n/a
137.337	0.200	auditory standard stimulus presentation	0.000	standard	n/a
140.365	0.200	auditory standard stimulus presentation	0.000	standard	n/a
142.400	0.200	auditory standard stimulus presentation	0.000	standard	n/a
144.833	0.200	auditory standard stimulus presentation	0.000	standard	n/a
147.082	0.200	auditory standard stimulus presentation	0.000	standard	n/a
150.111	0.200	auditory standard stimulus presentation	0.000	standard	n/a
152.344	0.200	auditory standard stimulus presentation	0.000	standard	n/a
154.976	0.200	auditory standard stimulus presentation	0.000	standard	n/a
157.804	0.200	auditory standard stimulus presentation	0.000	standard	n/a
160.452	0.200	auditory standard stimulus presentation	0.000	standard	n/a
162.487	0.200	auditory standard stimulus presentation	0.000	standard	n/a
165.515	0.200	auditory standard stimulus presentation	0.000	standard	n/a
168.560	0.200	auditory standard stimulus presentation	0.000	standard	n/a
171.191	0.372	behavioral response time following auditory oddball stimulus onset	1.000	target	n/a
171.191	0.200	auditory oddball stimulus presentation	1.000	target	n/a
173.639	n/a	n/a	0.000	standard	n/a
176.485	0.298	behavioral response time following auditory oddball stimulus onset	1.000	target	n/a
176.485	0.200	auditory oddball stimulus presentation	1.000	target	n/a
179.117	0.200	auditory standard stimulus presentation	0.000	standard	n/a
181.945	0.200	auditory standard stimulus presentation	0.000	standard	n/a
184.395	0.200	auditory standard stimulus presentation	0.000	standard	n/a
187.225	0.200	auditory standard stimulus presentation	0.000	standard	n/a
190.253	0.346	behavioral response time following auditory oddball stimulus onset	1.000	target	n/a
190.253	0.200	auditory oddball stimulus presentation	1.000	target	n/a
193.082	0.200	auditory standard stimulus presentation	0.000	standard	n/a
195.763	0.314	behavioral response time following auditory oddball stimulus onset	1.000	target	n/a
195.763	0.200	auditory oddball stimulus presentation	1.000	target	n/a
197.798	0.200	auditory standard stimulus presentation	0.000	standard	n/a
200.247	0.200	auditory standard stimulus presentation	0.000	standard	n/a
202.877	0.200	auditory standard stimulus presentation	0.000	standard	n/a
205.707	0.200	auditory standard stimulus presentation	0.000	standard	n/a
207.956	0.200	auditory standard stimulus presentation	0.000	standard	n/a
209.976	0.200	auditory standard stimulus presentation	0.000	standard	n/a
212.425	0.200	auditory standard stimulus presentation	0.000	standard	n/a
214.659	0.200	auditory oddball stimulus presentation	1.000	target	n/a
214.659	0.327	behavioral response time following auditory oddball stimulus onset	1.000	target	n/a
216.677	0.200	auditory standard stimulus presentation	0.000	standard	n/a
218.711	0.200	auditory standard stimulus presentation	0.000	standard	n/a
221.739	0.200	auditory standard stimulus presentation	0.000	standard	n/a
224.387	0.200	auditory standard stimulus presentation	0.000	standard	n/a
226.423	0.200	auditory standard stimulus presentation	0.000	standard	n/a
229.450	0.200	auditory standard stimulus presentation	0.000	standard	n/a
232.495	0.200	auditory standard stimulus presentation	0.000	standard	n/a
235.340	0.200	auditory standard stimulus presentation	0.000	standard	n/a
238.370	0.322	behavioral response time following auditory oddball stimulus onset	1.000	target	n/a
238.370	0.200	auditory oddball stimulus presentation	1.000	target	n/a
241.215	0.200	auditory standard stimulus presentation	0.000	standard	n/a
244.260	0.200	auditory standard stimulus presentation	0.000	standard	n/a
247.106	0.200	auditory standard stimulus presentation	0.000	standard	n/a
249.339	0.352	behavioral response time following auditory oddball stimulus onset	1.000	target	n/a
249.339	0.200	auditory oddball stimulus presentation	1.000	target	n/a
251.970	0.200	auditory standard stimulus presentation	0.000	standard	n/a
254.204	0.330	behavioral response time following auditory oddball stimulus onset	1.000	target	n/a
254.204	0.200	auditory oddball stimulus presentation	1.000	target	n/a
256.636	0.200	auditory standard stimulus presentation	0.000	standard	n/a
258.869	0.403	behavioral response time following auditory oddball stimulus onset	1.000	target	n/a
258.869	0.200	auditory oddball stimulus presentation	1.000	target	n/a
261.302	0.364	behavioral response time following auditory oddball stimulus onset	1.000	target	n/a
261.302	0.200	auditory oddball stimulus presentation	1.000	target	n/a
263.949	0.200	auditory standard stimulus presentation	0.000	standard	n/a
266.581	0.333	behavioral response time following auditory oddball stimulus onset	1.000	target	n/a
266.581	0.200	auditory oddball stimulus presentation	1.000	target	n/a
268.814	0.200	auditory standard stimulus presentation	0.000	standard	n/a
271.064	0.200	auditory standard stimulus presentation	0.000	standard	n/a
273.315	0.200	auditory standard stimulus presentation	0.000	standard	n/a
275.565	0.320	behavioral response time following auditory oddball stimulus onset	1.000	target	n/a
275.565	0.200	auditory oddball stimulus presentation	1.000	target	n/a
278.014	0.200	auditory standard stimulus presentation	0.000	standard	n/a
280.032	0.200	auditory standard stimulus presentation	0.000	standard	n/a
282.680	0.200	auditory standard stimulus presentation	0.000	standard	n/a
285.725	0.200	auditory standard stimulus presentation	0.000	standard	n/a
288.373	0.200	auditory standard stimulus presentation	0.000	standard	n/a
290.822	0.200	auditory standard stimulus presentation	0.000	standard	n/a
293.270	0.200	auditory standard stimulus presentation	0.000	standard	n/a
295.902	0.200	auditory standard stimulus presentation	0.000	standard	n/a
298.135	0.200	auditory standard stimulus presentation	0.000	standard	n/a
300.766	0.200	auditory standard stimulus presentation	0.000	standard	n/a
303.595	0.200	auditory standard stimulus presentation	0.000	standard	n/a
306.044	0.200	auditory standard stimulus presentation	0.000	standard	n/a
309.071	0.200	auditory standard stimulus presentation	0.000	standard	n/a
311.918	0.200	auditory oddball stimulus presentation	1.000	target	n/a
311.918	0.349	behavioral response time following auditory oddball stimulus onset	1.000	target	n/a
314.747	0.200	auditory standard stimulus presentation	0.000	standard	n/a
317.197	0.351	behavioral response time following auditory oddball stimulus onset	1.000	target	n/a
317.197	0.200	auditory oddball stimulus presentation	1.000	target	n/a
319.828	0.200	auditory standard stimulus presentation	0.000	standard	n/a
n/a	n/a	n/a	4.766	0	standard
n/a	n/a	n/a	6.786	0	standard
n/a	n/a	n/a	9.020	0	standard
