onset	duration	trial_type	Response	Stimulus	response_time
4.921	0.200	visual standard stimulus presentation	n/a	n/a	n/a
7.733	0.200	visual standard stimulus presentation	n/a	n/a	n/a
9.950	0.200	visual oddball stimulus presentation	n/a	n/a	n/a
9.950	0.380	behavioral response time following visual oddball stimulus onset	n/a	n/a	n/a
12.350	0.200	visual standard stimulus presentation	0.000	standard	n/a
15.346	0.200	visual standard stimulus presentation	0.000	standard	n/a
18.141	0.200	visual standard stimulus presentation	0.000	standard	n/a
20.540	0.200	visual standard stimulus presentation	0.000	standard	n/a
22.939	0.200	visual standard stimulus presentation	0.000	standard	n/a
25.340	0.200	visual standard stimulus presentation	0.000	standard	n/a
28.334	0.200	visual standard stimulus presentation	0.000	standard	n/a
31.329	0.200	visual standard stimulus presentation	0.000	standard	n/a
33.927	0.200	visual standard stimulus presentation	0.000	standard	n/a
36.325	0.200	visual standard stimulus presentation	0.000	standard	n/a
38.328	0.200	visual standard stimulus presentation	0.000	standard	n/a
40.528	0.200	visual standard stimulus presentation	0.000	standard	n/a
42.729	0.410	behavioral response time following visual oddball stimulus onset	1.000	target	n/a
42.729	0.200	visual oddball stimulus presentation	1.000	target	n/a
44.930	0.334	behavioral response time following visual oddball stimulus onset	1.000	target	n/a
44.930	0.200	visual oddball stimulus presentation	1.000	target	n/a
47.727	0.310	behavioral response time following visual oddball stimulus onset	1.000	target	n/a
47.727	0.200	visual oddball stimulus presentation	1.000	target	n/a
50.721	0.200	visual standard stimulus presentation	0.000	standard	n/a
53.517	0.200	visual standard stimulus presentation	0.000	standard	n/a
56.513	0.200	visual standard stimulus presentation	0.000	standard	n/a
58.515	0.200	visual standard stimulus presentation	0.000	standard	n/a
61.312	0.200	visual standard stimulus presentation	0.000	standard	n/a
63.909	0.200	visual oddball stimulus presentation	1.000	target	n/a
63.909	0.427	behavioral response time following visual oddball stimulus onset	1.000	target	n/a
65.910	0.200	visual standard stimulus presentation	0.000	standard	n/a
67.913	0.200	visual standard stimulus presentation	0.000	standard	n/a
70.511	0.200	visual standard stimulus presentation	0.000	standard	n/a
73.108	0.200	visual oddball stimulus presentation	1.000	target	n/a
73.108	0.375	behavioral response time following visual oddball stimulus onset	1.000	target	n/a
75.507	0.200	visual standard stimulus presentation	0.000	standard	n/a
77.907	0.200	visual standard stimulus presentation	0.000	standard	n/a
79.909	0.200	visual standard stimulus presentation	0.000	standard	n/a
82.109	0.200	visual standard stimulus presentation	0.000	standard	n/a
84.510	0.200	visual standard stimulus presentation	0.000	standard	n/a
87.106	0.200	visual standard stimulus presentation	0.000	standard	n/a
89.704	0.338	behavioral response time following visual oddball stimulus onset	1.000	target	n/a
89.704	0.200	visual oddball stimulus presentation	1.000	target	n/a
91.906	0.200	visual standard stimulus presentation	0.000	standard	n/a
93.908	0.200	visual standard stimulus presentation	0.000	standard	n/a
96.505	0.200	visual standard stimulus presentation	0.000	standard	n/a
99.301	0.200	visual oddball stimulus presentation	1.000	target	n/a
99.301	0.362	behavioral response time following visual oddball stimulus onset	1.000	target	n/a
101.304	0.200	visual standard stimulus presentation	0.000	standard	n/a
103.504	0.375	behavioral response time following visual oddball stimulus onset	1.000	target	n/a
103.504	0.200	visual oddball stimulus presentation	1.000	target	n/a
105.903	0.200	visual standard stimulus presentation	0.000	standard	n/a
108.700	0.200	visual standard stimulus presentation	0.000	standard	n/a
111.298	0.200	visual standard stimulus presentation	0.000	standard	n/a
114.293	0.354	behavioral response time following visual oddball stimulus onset	1.000	target	n/a
114.293	0.200	visual oddball stimulus presentation	1.000	target	n/a
116.493	0.200	visual standard stimulus presentation	0.000	standard	n/a
119.091	0.200	visual standard stimulus presentation	0.000	standard	n/a
121.688	0.200	visual standard stimulus presentation	0.000	standard	n/a
124.089	0.200	visual standard stimulus presentation	0.000	standard	n/a
126.488	0.347	behavioral response time following visual oddball stimulus onset	1.000	target	n/a
126.488	0.200	visual oddball stimulus presentation	1.000	target	n/a
128.489	n/a	n/a	1.000	standard	n/a
131.285	0.200	visual standard stimulus presentation	0.000	standard	n/a
134.281	0.359	behavioral response time following visual oddball stimulus onset	1.000	target	n/a
134.281	0.200	visual oddball stimulus presentation	1.000	target	n/a
136.879	0.200	visual standard stimulus presentation	0.000	standard	n/a
139.674	0.200	visual standard stimulus presentation	0.000	standard	n/a
141.676	0.200	visual standard stimulus presentation	0.000	standard	n/a
143.877	0.200	visual standard stimulus presentation	0.000	standard	n/a
146.475	0.200	visual standard stimulus presentation	0.000	standard	n/a
149.073	0.200	visual oddball stimulus presentation	1.000	target	n/a
149.073	0.444	behavioral response time following visual oddball stimulus onset	1.000	target	n/a
151.870	0.200	visual standard stimulus presentation	0.000	standard	n/a
153.871	0.200	visual standard stimulus presentation	0.000	standard	n/a
156.669	0.200	visual oddball stimulus presentation	1.000	target	n/a
156.669	0.387	behavioral response time following visual oddball stimulus onset	1.000	target	n/a
158.670	0.200	visual standard stimulus presentation	0.000	standard	n/a
160.673	0.200	visual standard stimulus presentation	0.000	standard	n/a
162.873	0.200	visual standard stimulus presentation	0.000	standard	n/a
165.470	0.200	visual standard stimulus presentation	0.000	standard	n/a
168.069	0.200	visual standard stimulus presentation	0.000	standard	n/a
170.071	0.200	visual standard stimulus presentation	0.000	standard	n/a
172.072	0.200	visual standard stimulus presentation	0.000	standard	n/a
174.075	0.200	visual standard stimulus presentation	0.000	standard	n/a
177.070	0.200	visual standard stimulus presentation	0.000	standard	n/a
180.064	0.409	behavioral response time following visual oddball stimulus onset	1.000	target	n/a
180.064	0.200	visual oddball stimulus presentation	1.000	target	n/a
182.463	0.394	behavioral response time following visual oddball stimulus onset	1.000	target	n/a
182.463	0.200	visual oddball stimulus presentation	1.000	target	n/a
185.062	0.200	visual standard stimulus presentation	0.000	standard	n/a
187.460	0.418	behavioral response time following visual oddball stimulus onset	1.000	target	n/a
187.460	0.200	visual oddball stimulus presentation	1.000	target	n/a
189.661	0.200	visual standard stimulus presentation	0.000	standard	n/a
192.260	0.200	visual standard stimulus presentation	0.000	standard	n/a
194.460	0.200	visual standard stimulus presentation	0.000	standard	n/a
197.058	0.200	visual standard stimulus presentation	0.000	standard	n/a
199.655	0.200	visual standard stimulus presentation	0.000	standard	n/a
202.055	0.200	visual standard stimulus presentation	0.000	standard	n/a
204.256	0.200	visual standard stimulus presentation	0.000	standard	n/a
206.655	0.200	visual oddball stimulus presentation	1.000	target	n/a
206.655	0.382	behavioral response time following visual oddball stimulus onset	1.000	target	n/a
208.855	0.200	visual standard stimulus presentation	0.000	standard	n/a
211.454	0.200	visual standard stimulus presentation	0.000	standard	n/a
213.654	0.200	visual standard stimulus presentation	0.000	standard	n/a
216.252	0.200	visual standard stimulus presentation	0.000	standard	n/a
218.453	0.200	visual standard stimulus presentation	0.000	standard	n/a
220.654	0.200	visual standard stimulus presentation	0.000	standard	n/a
223.053	0.200	visual standard stimulus presentation	0.000	standard	n/a
225.452	0.200	visual standard stimulus presentation	0.000	standard	n/a
227.653	0.200	visual standard stimulus presentation	0.000	standard	n/a
230.648	0.466	behavioral response time following visual oddball stimulus onset	1.000	target	n/a
230.648	0.200	visual oddball stimulus presentation	1.000	target	n/a
232.847	0.315	behavioral response time following visual oddball stimulus onset	1.000	target	n/a
232.847	0.200	visual oddball stimulus presentation	1.000	target	n/a
235.842	0.200	visual standard stimulus presentation	0.000	standard	n/a
238.043	0.200	visual standard stimulus presentation	0.000	standard	n/a
240.642	0.200	visual standard stimulus presentation	0.000	standard	n/a
242.841	0.200	visual standard stimulus presentation	0.000	standard	n/a
245.836	0.200	visual standard stimulus presentation	0.000	standard	n/a
248.038	0.200	visual standard stimulus presentation	0.000	standard	n/a
251.033	0.200	visual standard stimulus presentation	0.000	standard	n/a
253.630	0.200	visual standard stimulus presentation	0.000	standard	n/a
255.831	0.200	visual standard stimulus presentation	0.000	standard	n/a
258.429	0.200	visual standard stimulus presentation	0.000	standard	n/a
261.027	0.200	visual standard stimulus presentation	0.000	standard	n/a
263.226	0.200	visual standard stimulus presentation	0.000	standard	n/a
265.626	0.406	behavioral response time following visual oddball stimulus onset	1.000	target	n/a
265.626	0.200	visual oddball stimulus presentation	1.000	target	n/a
268.026	0.200	visual oddball stimulus presentation	1.000	target	n/a
268.026	0.462	behavioral response time following visual oddball stimulus onset	1.000	target	n/a
270.027	0.200	visual standard stimulus presentation	0.000	standard	n/a
272.626	0.200	visual standard stimulus presentation	0.000	standard	n/a
275.621	0.200	visual standard stimulus presentation	0.000	standard	n/a
278.416	0.200	visual standard stimulus presentation	0.000	standard	n/a
281.212	0.200	visual standard stimulus presentation	0.000	standard	n/a
283.414	0.200	visual oddball stimulus presentation	1.000	target	n/a
283.414	0.532	behavioral response time following visual oddball stimulus onset	1.000	target	n/a
286.210	0.200	visual standard stimulus presentation	0.000	standard	n/a
289.205	n/a	n/a	1.000	target	n/a
292.200	0.200	visual standard stimulus presentation	0.000	standard	n/a
294.598	0.200	visual standard stimulus presentation	0.000	standard	n/a
297.395	0.200	visual standard stimulus presentation	0.000	standard	n/a
299.993	0.200	visual standard stimulus presentation	0.000	standard	n/a
302.988	0.200	visual standard stimulus presentation	0.000	standard	n/a
305.188	0.200	visual oddball stimulus presentation	1.000	target	n/a
305.188	0.414	behavioral response time following visual oddball stimulus onset	1.000	target	n/a
308.184	0.200	visual standard stimulus presentation	0.000	standard	n/a
310.979	0.200	visual standard stimulus presentation	0.000	standard	n/a
313.777	0.200	visual standard stimulus presentation	0.000	standard	n/a
n/a	n/a	n/a	4.921	0	standard
n/a	n/a	n/a	7.733	0	standard
n/a	n/a	n/a	9.950	1	target
