onset	duration	trial_type	Response	Stimulus	response_time
7.644	0.200	auditory standard stimulus presentation	n/a	n/a	n/a
10.457	0.375	behavioral response time following auditory oddball stimulus onset	1.000	target	n/a
10.457	0.200	auditory oddball stimulus presentation	1.000	target	n/a
12.889	0.200	auditory oddball stimulus presentation	1.000	target	n/a
12.889	0.400	behavioral response time following auditory oddball stimulus onset	1.000	target	n/a
14.925	0.200	auditory standard stimulus presentation	0.000	standard	n/a
17.142	0.200	auditory oddball stimulus presentation	1.000	target	n/a
17.142	0.270	behavioral response time following auditory oddball stimulus onset	1.000	target	n/a
19.971	0.200	auditory oddball stimulus presentation	1.000	target	n/a
19.971	0.310	behavioral response time following auditory oddball stimulus onset	1.000	target	n/a
23.015	n/a	n/a	1.000	standard	n/a
25.845	0.200	auditory standard stimulus presentation	0.000	standard	n/a
28.079	0.200	auditory standard stimulus presentation	0.000	standard	n/a
30.114	0.200	auditory standard stimulus presentation	0.000	standard	n/a
32.942	0.200	auditory standard stimulus presentation	0.000	standard	n/a
35.988	0.200	auditory standard stimulus presentation	0.000	standard	n/a
38.619	0.200	auditory standard stimulus presentation	0.000	standard	n/a
41.647	0.200	auditory standard stimulus presentation	0.000	standard	n/a
44.475	0.200	auditory standard stimulus presentation	0.000	standard	n/a
47.503	0.200	auditory standard stimulus presentation	0.000	standard	n/a
50.134	0.200	auditory standard stimulus presentation	0.000	standard	n/a
52.187	0.200	auditory standard stimulus presentation	0.000	standard	n/a
54.436	0.200	auditory standard stimulus presentation	0.000	standard	n/a
56.686	0.200	auditory standard stimulus presentation	0.000	standard	n/a
58.723	0.200	auditory standard stimulus presentation	0.000	standard	n/a
60.741	0.200	auditory standard stimulus presentation	0.000	standard	n/a
62.975	0.200	auditory standard stimulus presentation	0.000	standard	n/a
65.208	0.200	auditory standard stimulus presentation	0.000	standard	n/a
68.037	0.280	behavioral response time following auditory oddball stimulus onset	1.000	target	n/a
68.037	0.200	auditory oddball stimulus presentation	1.000	target	n/a
70.867	0.200	auditory standard stimulus presentation	0.000	standard	n/a
73.697	0.200	auditory standard stimulus presentation	0.000	standard	n/a
75.749	0.200	auditory standard stimulus presentation	0.000	standard	n/a
77.784	0.200	auditory standard stimulus presentation	0.000	standard	n/a
80.828	0.200	auditory standard stimulus presentation	0.000	standard	n/a
83.873	0.200	auditory standard stimulus presentation	0.000	standard	n/a
86.702	0.200	auditory standard stimulus presentation	0.000	standard	n/a
89.531	0.200	auditory standard stimulus presentation	0.000	standard	n/a
92.163	0.200	auditory standard stimulus presentation	0.000	standard	n/a
94.397	0.200	auditory standard stimulus presentation	0.000	standard	n/a
97.226	0.200	auditory standard stimulus presentation	0.000	standard	n/a
99.874	0.200	auditory standard stimulus presentation	0.000	standard	n/a
102.702	0.200	auditory standard stimulus presentation	0.000	standard	n/a
105.531	0.200	auditory standard stimulus presentation	0.000	standard	n/a
108.362	0.200	auditory standard stimulus presentation	0.000	standard	n/a
111.390	0.200	auditory standard stimulus presentation	0.000	standard	n/a
114.236	0.200	auditory standard stimulus presentation	0.000	standard	n/a
117.263	0.200	auditory standard stimulus presentation	0.000	standard	n/a
119.695	0.200	auditory standard stimulus presentation	0.000	standard	n/a
121.946	0.200	auditory standard stimulus presentation	0.000	standard	n/a
124.974	0.200	auditory standard stimulus presentation	0.000	standard	n/a
127.208	0.200	auditory standard stimulus presentation	0.000	standard	n/a
129.855	0.200	auditory standard stimulus presentation	0.000	standard	n/a
132.088	0.200	auditory standard stimulus presentation	0.000	standard	n/a
134.322	0.200	auditory standard stimulus presentation	0.000	standard	n/a
137.350	0.200	auditory standard stimulus presentation	0.000	standard	n/a
139.784	0.200	auditory standard stimulus presentation	0.000	standard	n/a
141.818	0.297	behavioral response time following auditory oddball stimulus onset	1.000	target	n/a
141.818	0.200	auditory oddball stimulus presentation	1.000	target	n/a
144.648	0.200	auditory oddball stimulus presentation	1.000	target	n/a
144.648	0.386	behavioral response time following auditory oddball stimulus onset	1.000	target	n/a
146.931	0.200	auditory standard stimulus presentation	0.000	standard	n/a
148.967	0.200	auditory standard stimulus presentation	0.000	standard	n/a
151.001	0.200	auditory standard stimulus presentation	0.000	standard	n/a
153.236	0.277	behavioral response time following auditory oddball stimulus onset	1.000	target	n/a
153.236	0.200	auditory oddball stimulus presentation	1.000	target	n/a
155.470	0.200	auditory oddball stimulus presentation	1.000	target	n/a
155.470	0.283	behavioral response time following auditory oddball stimulus onset	1.000	target	n/a
157.902	0.200	auditory standard stimulus presentation	0.000	standard	n/a
160.929	0.200	auditory oddball stimulus presentation	1.000	target	n/a
160.929	0.268	behavioral response time following auditory oddball stimulus onset	1.000	target	n/a
163.560	0.200	auditory standard stimulus presentation	0.000	standard	n/a
165.595	0.200	auditory standard stimulus presentation	0.000	standard	n/a
167.829	0.200	auditory oddball stimulus presentation	1.000	target	n/a
167.829	0.301	behavioral response time following auditory oddball stimulus onset	1.000	target	n/a
170.062	0.200	auditory standard stimulus presentation	0.000	standard	n/a
172.099	0.200	auditory standard stimulus presentation	0.000	standard	n/a
174.134	0.300	behavioral response time following auditory oddball stimulus onset	1.000	target	n/a
174.134	0.200	auditory oddball stimulus presentation	1.000	target	n/a
176.152	0.200	auditory standard stimulus presentation	0.000	standard	n/a
178.997	0.303	behavioral response time following auditory oddball stimulus onset	1.000	target	n/a
178.997	0.200	auditory oddball stimulus presentation	1.000	target	n/a
181.845	0.200	auditory standard stimulus presentation	0.000	standard	n/a
184.077	0.200	auditory oddball stimulus presentation	1.000	target	n/a
184.077	0.253	behavioral response time following auditory oddball stimulus onset	1.000	target	n/a
187.105	0.200	auditory standard stimulus presentation	0.000	standard	n/a
190.133	0.200	auditory standard stimulus presentation	0.000	standard	n/a
192.384	0.261	behavioral response time following auditory oddball stimulus onset	1.000	target	n/a
192.384	0.200	auditory oddball stimulus presentation	1.000	target	n/a
194.436	0.200	auditory oddball stimulus presentation	1.000	target	n/a
194.436	0.334	behavioral response time following auditory oddball stimulus onset	1.000	target	n/a
197.464	0.200	auditory standard stimulus presentation	0.000	standard	n/a
200.508	0.200	auditory standard stimulus presentation	0.000	standard	n/a
203.552	0.200	auditory standard stimulus presentation	0.000	standard	n/a
205.787	0.200	auditory standard stimulus presentation	0.000	standard	n/a
208.831	0.200	auditory standard stimulus presentation	0.000	standard	n/a
211.463	0.200	auditory standard stimulus presentation	0.000	standard	n/a
213.514	0.200	auditory standard stimulus presentation	0.000	standard	n/a
215.748	0.329	behavioral response time following auditory oddball stimulus onset	1.000	target	n/a
215.748	0.200	auditory oddball stimulus presentation	1.000	target	n/a
218.593	0.200	auditory standard stimulus presentation	0.000	standard	n/a
221.423	0.200	auditory standard stimulus presentation	0.000	standard	n/a
223.657	0.200	auditory standard stimulus presentation	0.000	standard	n/a
226.487	0.200	auditory standard stimulus presentation	0.000	standard	n/a
228.935	0.200	auditory oddball stimulus presentation	1.000	target	n/a
228.935	0.319	behavioral response time following auditory oddball stimulus onset	1.000	target	n/a
231.782	0.200	auditory standard stimulus presentation	0.000	standard	n/a
234.611	0.200	auditory oddball stimulus presentation	1.000	target	n/a
234.611	0.315	behavioral response time following auditory oddball stimulus onset	1.000	target	n/a
236.646	0.200	auditory standard stimulus presentation	0.000	standard	n/a
239.293	0.200	auditory standard stimulus presentation	0.000	standard	n/a
242.123	0.200	auditory standard stimulus presentation	0.000	standard	n/a
244.157	0.200	auditory standard stimulus presentation	0.000	standard	n/a
246.590	0.200	auditory standard stimulus presentation	0.000	standard	n/a
249.634	0.200	auditory standard stimulus presentation	0.000	standard	n/a
251.654	0.301	behavioral response time following auditory oddball stimulus onset	1.000	target	n/a
251.654	0.200	auditory oddball stimulus presentation	1.000	target	n/a
254.698	0.200	auditory standard stimulus presentation	0.000	standard	n/a
257.742	0.200	auditory standard stimulus presentation	0.000	standard	n/a
259.977	0.444	behavioral response time following auditory oddball stimulus onset	1.000	target	n/a
259.977	0.200	auditory oddball stimulus presentation	1.000	target	n/a
263.005	0.200	auditory standard stimulus presentation	0.000	standard	n/a
265.237	0.200	auditory standard stimulus presentation	0.000	standard	n/a
268.084	0.310	behavioral response time following auditory oddball stimulus onset	1.000	target	n/a
268.084	0.200	auditory oddball stimulus presentation	1.000	target	n/a
270.120	0.200	auditory standard stimulus presentation	0.000	standard	n/a
272.966	0.200	auditory standard stimulus presentation	0.000	standard	n/a
275.001	n/a	n/a	1.000	standard	n/a
277.432	0.200	auditory standard stimulus presentation	0.000	standard	n/a
279.864	0.200	auditory standard stimulus presentation	0.000	standard	n/a
281.884	0.200	auditory standard stimulus presentation	0.000	standard	n/a
283.919	0.200	auditory standard stimulus presentation	0.000	standard	n/a
286.153	0.200	auditory standard stimulus presentation	0.000	standard	n/a
288.784	0.272	behavioral response time following auditory oddball stimulus onset	1.000	target	n/a
288.784	0.200	auditory oddball stimulus presentation	1.000	target	n/a
290.818	0.200	auditory standard stimulus presentation	0.000	standard	n/a
293.665	0.200	auditory standard stimulus presentation	0.000	standard	n/a
296.096	0.200	auditory standard stimulus presentation	0.000	standard	n/a
298.727	0.200	auditory standard stimulus presentation	0.000	standard	n/a
301.757	0.200	auditory standard stimulus presentation	0.000	standard	n/a
303.807	0.200	auditory standard stimulus presentation	0.000	standard	n/a
305.860	0.200	auditory standard stimulus presentation	0.000	standard	n/a
308.308	0.200	auditory oddball stimulus presentation	1.000	target	n/a
308.308	0.456	behavioral response time following auditory oddball stimulus onset	1.000	target	n/a
310.758	0.200	auditory oddball stimulus presentation	1.000	target	n/a
310.758	0.379	behavioral response time following auditory oddball stimulus onset	1.000	target	n/a
312.792	0.200	auditory standard stimulus presentation	0.000	standard	n/a
315.225	0.200	auditory standard stimulus presentation	0.000	standard	n/a
317.873	0.200	auditory standard stimulus presentation	0.000	standard	n/a
n/a	n/a	n/a	4.633	1	standard
n/a	n/a	n/a	7.644	0	standard
