onset	duration	trial_type	Response	Stimulus	RT
5.216	0.2	auditory standard stimulus presentation	n/a	n/a	n/a
8.03	0.2	auditory standard stimulus presentation	n/a	n/a	n/a
10.857999999999999	0.363	behavioral response time following auditory oddball stimulus onset	1.0	target	n/a
10.857999999999999	0.2	auditory oddball stimulus presentation	1.0	target	n/a
13.887	0.2	auditory standard stimulus presentation	0.0	standard	n/a
15.923	0.2	auditory standard stimulus presentation	0.0	standard	n/a
17.957	0.2	auditory standard stimulus presentation	0.0	standard	n/a
20.785999999999998	0.2	auditory standard stimulus presentation	0.0	standard	n/a
23.418000000000003	0.2	auditory standard stimulus presentation	0.0	standard	n/a
26.463	0.2	auditory standard stimulus presentation	0.0	standard	n/a
28.910999999999998	0.2	auditory standard stimulus presentation	0.0	standard	n/a
31.145	0.2	auditory standard stimulus presentation	0.0	standard	n/a
33.775	0.2	auditory oddball stimulus presentation	1.0	target	n/a
33.775	0.349	behavioral response time following auditory oddball stimulus onset	1.0	target	n/a
36.224000000000004	0.2	auditory standard stimulus presentation	0.0	standard	n/a
39.285	0.2	auditory oddball stimulus presentation	1.0	target	n/a
39.285	0.40399999999999997	behavioral response time following auditory oddball stimulus onset	1.0	target	n/a
41.305	0.2	auditory standard stimulus presentation	0.0	standard	n/a
43.553999999999995	0.39299999999999996	behavioral response time following auditory oddball stimulus onset	1.0	target	n/a
43.553999999999995	0.2	auditory oddball stimulus presentation	1.0	target	n/a
46.236000000000004	n/a	n/a	0.0	standard	n/a
48.882	0.2	auditory standard stimulus presentation	0.0	standard	n/a
51.315	0.2	auditory standard stimulus presentation	0.0	standard	n/a
53.946000000000005	0.2	auditory standard stimulus presentation	0.0	standard	n/a
56.378	0.2	auditory standard stimulus presentation	0.0	standard	n/a
59.208	0.2	auditory standard stimulus presentation	0.0	standard	n/a
62.253	0.2	auditory oddball stimulus presentation	1.0	target	n/a
62.253	0.301	behavioral response time following auditory oddball stimulus onset	1.0	target	n/a
64.486	0.2	auditory standard stimulus presentation	0.0	standard	n/a
66.52199999999999	0.2	auditory standard stimulus presentation	0.0	standard	n/a
68.97	0.2	auditory standard stimulus presentation	0.0	standard	n/a
71.403	0.2	auditory oddball stimulus presentation	1.0	target	n/a
71.403	0.36700000000000005	behavioral response time following auditory oddball stimulus onset	1.0	target	n/a
74.05	0.2	auditory standard stimulus presentation	0.0	standard	n/a
76.895	0.2	auditory standard stimulus presentation	0.0	standard	n/a
79.13	0.2	auditory standard stimulus presentation	0.0	standard	n/a
81.363	0.396	behavioral response time following auditory oddball stimulus onset	1.0	target	n/a
81.363	0.2	auditory oddball stimulus presentation	1.0	target	n/a
84.40700000000001	0.2	auditory standard stimulus presentation	0.0	standard	n/a
87.038	0.2	auditory standard stimulus presentation	0.0	standard	n/a
89.67	0.41600000000000004	behavioral response time following auditory oddball stimulus onset	1.0	target	n/a
89.67	0.2	auditory oddball stimulus presentation	1.0	target	n/a
91.90299999999999	0.2	auditory standard stimulus presentation	0.0	standard	n/a
94.137	0.2	auditory standard stimulus presentation	0.0	standard	n/a
96.17299999999999	0.2	auditory standard stimulus presentation	0.0	standard	n/a
99.21600000000001	0.2	auditory standard stimulus presentation	0.0	standard	n/a
102.06299999999999	0.2	auditory standard stimulus presentation	0.0	standard	n/a
104.694	0.2	auditory oddball stimulus presentation	1.0	target	n/a
104.694	0.376	behavioral response time following auditory oddball stimulus onset	1.0	target	n/a
107.523	0.2	auditory standard stimulus presentation	0.0	standard	n/a
109.955	0.2	auditory standard stimulus presentation	0.0	standard	n/a
112.387	0.2	auditory standard stimulus presentation	0.0	standard	n/a
115.234	0.2	auditory standard stimulus presentation	0.0	standard	n/a
117.46799999999999	0.2	auditory standard stimulus presentation	0.0	standard	n/a
120.09899999999999	0.2	auditory standard stimulus presentation	0.0	standard	n/a
122.34899999999999	0.2	auditory standard stimulus presentation	0.0	standard	n/a
124.59899999999999	0.2	auditory standard stimulus presentation	0.0	standard	n/a
126.634	0.2	auditory standard stimulus presentation	0.0	standard	n/a
128.67	0.2	auditory standard stimulus presentation	0.0	standard	n/a
131.69799999999998	0.2	auditory oddball stimulus presentation	1.0	target	n/a
131.69799999999998	0.34299999999999997	behavioral response time following auditory oddball stimulus onset	1.0	target	n/a
134.129	0.2	auditory standard stimulus presentation	0.0	standard	n/a
136.38	0.48	behavioral response time following auditory oddball stimulus onset	1.0	target	n/a
136.38	0.2	auditory oddball stimulus presentation	1.0	target	n/a
139.028	0.2	auditory standard stimulus presentation	0.0	standard	n/a
141.278	0.292	behavioral response time following auditory oddball stimulus onset	1.0	target	n/a
141.278	0.2	auditory oddball stimulus presentation	1.0	target	n/a
143.709	0.2	auditory standard stimulus presentation	0.0	standard	n/a
146.737	0.2	auditory standard stimulus presentation	0.0	standard	n/a
148.79	0.2	auditory standard stimulus presentation	0.0	standard	n/a
151.239	0.2	auditory standard stimulus presentation	0.0	standard	n/a
153.67	0.2	auditory standard stimulus presentation	0.0	standard	n/a
156.69799999999998	0.2	auditory standard stimulus presentation	0.0	standard	n/a
159.33	0.2	auditory standard stimulus presentation	0.0	standard	n/a
161.381	0.2	auditory standard stimulus presentation	0.0	standard	n/a
164.21099999999998	0.2	auditory standard stimulus presentation	0.0	standard	n/a
167.041	0.2	auditory standard stimulus presentation	0.0	standard	n/a
170.06900000000002	0.2	auditory oddball stimulus presentation	1.0	target	n/a
170.06900000000002	0.368	behavioral response time following auditory oddball stimulus onset	1.0	target	n/a
173.097	0.2	auditory oddball stimulus presentation	1.0	target	n/a
173.097	0.385	behavioral response time following auditory oddball stimulus onset	1.0	target	n/a
175.13099999999997	0.2	auditory oddball stimulus presentation	1.0	target	n/a
175.13099999999997	0.349	behavioral response time following auditory oddball stimulus onset	1.0	target	n/a
177.762	0.2	auditory standard stimulus presentation	0.0	standard	n/a
180.808	0.2	auditory oddball stimulus presentation	1.0	target	n/a
180.808	0.473	behavioral response time following auditory oddball stimulus onset	1.0	target	n/a
183.835	0.2	auditory standard stimulus presentation	0.0	standard	n/a
186.283	0.2	auditory standard stimulus presentation	0.0	standard	n/a
189.114	0.297	behavioral response time following auditory oddball stimulus onset	1.0	target	n/a
189.114	0.2	auditory oddball stimulus presentation	1.0	target	n/a
191.545	0.2	auditory standard stimulus presentation	0.0	standard	n/a
193.77900000000002	0.2	auditory standard stimulus presentation	0.0	standard	n/a
196.21200000000002	0.2	auditory standard stimulus presentation	0.0	standard	n/a
198.263	0.2	auditory standard stimulus presentation	0.0	standard	n/a
200.696	0.2	auditory standard stimulus presentation	0.0	standard	n/a
203.74099999999999	0.2	auditory standard stimulus presentation	0.0	standard	n/a
206.56900000000002	0.2	auditory standard stimulus presentation	0.0	standard	n/a
209.018	0.301	behavioral response time following auditory oddball stimulus onset	1.0	target	n/a
209.018	0.2	auditory oddball stimulus presentation	1.0	target	n/a
211.451	0.2	auditory standard stimulus presentation	0.0	standard	n/a
213.502	0.2	auditory standard stimulus presentation	0.0	standard	n/a
215.753	0.2	auditory standard stimulus presentation	0.0	standard	n/a
218.582	0.2	auditory standard stimulus presentation	0.0	standard	n/a
221.015	0.2	auditory standard stimulus presentation	0.0	standard	n/a
223.645	0.2	auditory oddball stimulus presentation	1.0	target	n/a
223.645	0.285	behavioral response time following auditory oddball stimulus onset	1.0	target	n/a
225.88	n/a	n/a	0.0	standard	n/a
228.708	0.2	auditory standard stimulus presentation	0.0	standard	n/a
231.753	0.2	auditory standard stimulus presentation	0.0	standard	n/a
234.798	0.2	auditory standard stimulus presentation	0.0	standard	n/a
237.843	0.2	auditory standard stimulus presentation	0.0	standard	n/a
240.076	0.2	auditory standard stimulus presentation	0.0	standard	n/a
242.707	0.2	auditory standard stimulus presentation	0.0	standard	n/a
245.139	0.2	auditory standard stimulus presentation	0.0	standard	n/a
247.571	0.2	auditory standard stimulus presentation	0.0	standard	n/a
250.252	0.2	auditory standard stimulus presentation	0.0	standard	n/a
252.503	0.2	auditory standard stimulus presentation	0.0	standard	n/a
255.13299999999998	0.2	auditory standard stimulus presentation	0.0	standard	n/a
258.16200000000003	0.2	auditory standard stimulus presentation	0.0	standard	n/a
260.611	0.2	auditory standard stimulus presentation	0.0	standard	n/a
263.257	0.2	auditory standard stimulus presentation	0.0	standard	n/a
266.10400000000004	0.2	auditory standard stimulus presentation	0.0	standard	n/a
268.752	0.34600000000000003	behavioral response time following auditory oddball stimulus onset	1.0	target	n/a
268.752	0.2	auditory oddball stimulus presentation	1.0	target	n/a
271.001	0.2	auditory standard stimulus presentation	0.0	standard	n/a
274.046	0.39299999999999996	behavioral response time following auditory oddball stimulus onset	1.0	target	n/a
274.046	0.2	auditory oddball stimulus presentation	1.0	target	n/a
277.074	0.32299999999999995	behavioral response time following auditory oddball stimulus onset	1.0	target	n/a
277.074	0.2	auditory oddball stimulus presentation	1.0	target	n/a
280.103	0.2	auditory standard stimulus presentation	0.0	standard	n/a
282.336	0.2	auditory standard stimulus presentation	0.0	standard	n/a
285.363	0.32	behavioral response time following auditory oddball stimulus onset	1.0	target	n/a
285.363	0.2	auditory oddball stimulus presentation	1.0	target	n/a
287.383	0.2	auditory standard stimulus presentation	0.0	standard	n/a
290.211	0.2	auditory standard stimulus presentation	0.0	standard	n/a
293.041	0.2	auditory standard stimulus presentation	0.0	standard	n/a
295.276	0.2	auditory standard stimulus presentation	0.0	standard	n/a
297.508	0.2	auditory standard stimulus presentation	0.0	standard	n/a
300.339	0.2	auditory standard stimulus presentation	0.0	standard	n/a
303.367	0.33799999999999997	behavioral response time following auditory oddball stimulus onset	1.0	target	n/a
303.367	0.2	auditory oddball stimulus presentation	1.0	target	n/a
306.19599999999997	0.2	auditory standard stimulus presentation	0.0	standard	n/a
309.24	0.2	auditory standard stimulus presentation	0.0	standard	n/a
312.086	0.2	auditory standard stimulus presentation	0.0	standard	n/a
314.933	0.2	auditory standard stimulus presentation	0.0	standard	n/a
317.762	0.2	auditory standard stimulus presentation	0.0	standard	n/a
320.789	0.36	behavioral response time following auditory oddball stimulus onset	1.0	target	n/a
320.789	0.2	auditory oddball stimulus presentation	1.0	target	n/a
323.817	0.2	auditory standard stimulus presentation	0.0	standard	n/a
326.64799999999997	0.2	auditory standard stimulus presentation	0.0	standard	n/a
n/a	n/a	n/a	5.216	0	standard
n/a	n/a	n/a	8.03	0	standard
