onset	duration	trial_type	Response	Stimulus	RT
4.241	0.2	visual standard stimulus presentation	n/a	n/a	n/a
6.855	0.2	visual standard stimulus presentation	n/a	n/a	n/a
8.873	0.2	visual standard stimulus presentation	n/a	n/a	n/a
11.471	0.413	behavioral response time following visual oddball stimulus onset	1.0	target	n/a
11.471	0.2	visual oddball stimulus presentation	1.0	target	n/a
13.473	0.2	visual standard stimulus presentation	0.0	standard	n/a
15.475	0.2	visual standard stimulus presentation	0.0	standard	n/a
18.272	0.2	visual standard stimulus presentation	0.0	standard	n/a
21.068	0.2	visual standard stimulus presentation	0.0	standard	n/a
23.467	0.2	visual standard stimulus presentation	0.0	standard	n/a
26.065	0.2	visual standard stimulus presentation	0.0	standard	n/a
28.265	0.2	visual standard stimulus presentation	0.0	standard	n/a
30.269	0.2	visual oddball stimulus presentation	1.0	target	n/a
30.269	0.375	behavioral response time following visual oddball stimulus onset	1.0	target	n/a
33.262	0.2	visual standard stimulus presentation	0.0	standard	n/a
35.663	0.2	visual standard stimulus presentation	0.0	standard	n/a
38.061	0.2	visual standard stimulus presentation	0.0	standard	n/a
41.057	0.2	visual standard stimulus presentation	0.0	standard	n/a
44.052	0.2	visual standard stimulus presentation	0.0	standard	n/a
46.053	0.2	visual oddball stimulus presentation	1.0	target	n/a
46.053	0.318	behavioral response time following visual oddball stimulus onset	1.0	target	n/a
49.049	n/a	n/a	0.0	standard	n/a
51.248	0.2	visual standard stimulus presentation	0.0	standard	n/a
54.244	0.2	visual standard stimulus presentation	0.0	standard	n/a
56.644	n/a	n/a	0.0	standard	n/a
59.44	0.379	behavioral response time following visual oddball stimulus onset	1.0	target	n/a
59.44	0.2	visual oddball stimulus presentation	1.0	target	n/a
61.442	0.369	behavioral response time following visual oddball stimulus onset	1.0	target	n/a
61.442	0.2	visual oddball stimulus presentation	1.0	target	n/a
64.04	0.2	visual standard stimulus presentation	0.0	standard	n/a
66.24	0.2	visual standard stimulus presentation	0.0	standard	n/a
68.441	0.2	visual oddball stimulus presentation	1.0	target	n/a
68.441	0.388	behavioral response time following visual oddball stimulus onset	1.0	target	n/a
71.436	0.2	visual standard stimulus presentation	0.0	standard	n/a
74.232	0.2	visual oddball stimulus presentation	1.0	target	n/a
74.232	0.288	behavioral response time following visual oddball stimulus onset	1.0	target	n/a
76.631	0.2	visual oddball stimulus presentation	1.0	target	n/a
76.631	0.382	behavioral response time following visual oddball stimulus onset	1.0	target	n/a
79.031	0.2	visual standard stimulus presentation	0.0	standard	n/a
82.025	0.2	visual standard stimulus presentation	0.0	standard	n/a
84.822	0.2	visual standard stimulus presentation	0.0	standard	n/a
87.617	0.2	visual standard stimulus presentation	0.0	standard	n/a
90.018	0.2	visual standard stimulus presentation	0.0	standard	n/a
92.417	0.2	visual standard stimulus presentation	0.0	standard	n/a
94.418	0.2	visual standard stimulus presentation	0.0	standard	n/a
96.619	0.368	behavioral response time following visual oddball stimulus onset	1.0	target	n/a
96.619	0.2	visual oddball stimulus presentation	1.0	target	n/a
98.621	n/a	n/a	0.0	standard	n/a
101.219	0.2	visual standard stimulus presentation	0.0	standard	n/a
103.419	0.2	visual standard stimulus presentation	0.0	standard	n/a
106.017	0.2	visual standard stimulus presentation	0.0	standard	n/a
108.814	0.2	visual standard stimulus presentation	0.0	standard	n/a
111.015	0.2	visual standard stimulus presentation	0.0	standard	n/a
113.016	0.392	behavioral response time following visual oddball stimulus onset	1.0	target	n/a
113.016	0.2	visual oddball stimulus presentation	1.0	target	n/a
115.217	0.2	visual standard stimulus presentation	0.0	standard	n/a
117.219	0.2	visual oddball stimulus presentation	1.0	target	n/a
117.219	0.351	behavioral response time following visual oddball stimulus onset	1.0	target	n/a
120.215	0.2	visual oddball stimulus presentation	1.0	target	n/a
120.215	0.317	behavioral response time following visual oddball stimulus onset	1.0	target	n/a
122.216	0.2	visual standard stimulus presentation	0.0	standard	n/a
124.815	0.2	visual standard stimulus presentation	0.0	standard	n/a
127.809	0.2	visual standard stimulus presentation	0.0	standard	n/a
130.407	0.2	visual standard stimulus presentation	0.0	standard	n/a
133.402	0.2	visual standard stimulus presentation	0.0	standard	n/a
136.397	0.2	visual standard stimulus presentation	0.0	standard	n/a
138.399	0.2	visual oddball stimulus presentation	1.0	target	n/a
138.399	0.371	behavioral response time following visual oddball stimulus onset	1.0	target	n/a
141.393	0.2	visual standard stimulus presentation	0.0	standard	n/a
143.991	0.2	visual standard stimulus presentation	0.0	standard	n/a
146.391	0.2	visual standard stimulus presentation	0.0	standard	n/a
148.988	0.2	visual oddball stimulus presentation	1.0	target	n/a
148.988	0.362	behavioral response time following visual oddball stimulus onset	1.0	target	n/a
151.19	n/a	n/a	0.0	standard	n/a
153.39	0.2	visual standard stimulus presentation	0.0	standard	n/a
156.187	0.2	visual standard stimulus presentation	0.0	standard	n/a
158.387	0.2	visual oddball stimulus presentation	1.0	target	n/a
158.387	0.351	behavioral response time following visual oddball stimulus onset	1.0	target	n/a
161.382	0.2	visual standard stimulus presentation	0.0	standard	n/a
163.781	0.2	visual standard stimulus presentation	0.0	standard	n/a
166.776	0.2	visual standard stimulus presentation	0.0	standard	n/a
169.373	0.2	visual standard stimulus presentation	0.0	standard	n/a
172.369	0.33	behavioral response time following visual oddball stimulus onset	1.0	target	n/a
172.369	0.2	visual oddball stimulus presentation	1.0	target	n/a
174.57	0.2	visual standard stimulus presentation	0.0	standard	n/a
176.968	0.424	behavioral response time following visual oddball stimulus onset	1.0	target	n/a
176.968	0.2	visual oddball stimulus presentation	1.0	target	n/a
179.17	0.323	behavioral response time following visual oddball stimulus onset	1.0	target	n/a
179.17	0.2	visual oddball stimulus presentation	1.0	target	n/a
181.37	0.2	visual standard stimulus presentation	0.0	standard	n/a
183.968	0.2	visual standard stimulus presentation	0.0	standard	n/a
186.764	0.2	visual standard stimulus presentation	0.0	standard	n/a
188.965	0.327	behavioral response time following visual oddball stimulus onset	1.0	target	n/a
188.965	0.2	visual oddball stimulus presentation	1.0	target	n/a
191.761	0.2	visual standard stimulus presentation	0.0	standard	n/a
193.961	0.2	visual standard stimulus presentation	0.0	standard	n/a
196.559	0.2	visual standard stimulus presentation	0.0	standard	n/a
199.554	0.2	visual standard stimulus presentation	0.0	standard	n/a
201.756	0.2	visual standard stimulus presentation	0.0	standard	n/a
204.352	0.2	visual standard stimulus presentation	0.0	standard	n/a
207.348	0.2	visual standard stimulus presentation	0.0	standard	n/a
209.349	0.2	visual standard stimulus presentation	0.0	standard	n/a
211.948	0.2	visual oddball stimulus presentation	1.0	target	n/a
211.948	0.406	behavioral response time following visual oddball stimulus onset	1.0	target	n/a
214.744	0.2	visual standard stimulus presentation	0.0	standard	n/a
217.341	0.2	visual standard stimulus presentation	0.0	standard	n/a
219.543	0.2	visual standard stimulus presentation	0.0	standard	n/a
222.14	0.2	visual standard stimulus presentation	0.0	standard	n/a
225.136	0.2	visual standard stimulus presentation	0.0	standard	n/a
228.13	0.2	visual standard stimulus presentation	0.0	standard	n/a
230.529	0.388	behavioral response time following visual oddball stimulus onset	1.0	target	n/a
230.529	0.2	visual oddball stimulus presentation	1.0	target	n/a
232.532	0.2	visual standard stimulus presentation	0.0	standard	n/a
234.93	0.2	visual standard stimulus presentation	0.0	standard	n/a
237.131	0.2	visual standard stimulus presentation	0.0	standard	n/a
240.126	0.2	visual standard stimulus presentation	0.0	standard	n/a
242.525	0.2	visual standard stimulus presentation	0.0	standard	n/a
244.726	0.2	visual standard stimulus presentation	0.0	standard	n/a
246.729	0.2	visual standard stimulus presentation	0.0	standard	n/a
249.127	0.2	visual oddball stimulus presentation	1.0	target	n/a
249.127	0.434	behavioral response time following visual oddball stimulus onset	1.0	target	n/a
251.328	n/a	n/a	1.0	target	n/a
254.125	0.2	visual standard stimulus presentation	0.0	standard	n/a
256.326	0.2	visual standard stimulus presentation	0.0	standard	n/a
259.122	0.2	visual standard stimulus presentation	0.0	standard	n/a
261.72	0.415	behavioral response time following visual oddball stimulus onset	1.0	target	n/a
261.72	0.2	visual oddball stimulus presentation	1.0	target	n/a
264.715	0.365	behavioral response time following visual oddball stimulus onset	1.0	target	n/a
264.715	0.2	visual oddball stimulus presentation	1.0	target	n/a
267.709	0.2	visual standard stimulus presentation	0.0	standard	n/a
270.506	0.2	visual standard stimulus presentation	0.0	standard	n/a
272.706	0.2	visual standard stimulus presentation	0.0	standard	n/a
275.106	0.2	visual standard stimulus presentation	0.0	standard	n/a
277.703	0.2	visual standard stimulus presentation	0.0	standard	n/a
280.103	0.2	visual standard stimulus presentation	0.0	standard	n/a
282.302	0.2	visual standard stimulus presentation	0.0	standard	n/a
284.504	0.2	visual standard stimulus presentation	0.0	standard	n/a
287.3	0.2	visual standard stimulus presentation	0.0	standard	n/a
289.5	0.2	visual standard stimulus presentation	0.0	standard	n/a
292.098	0.2	visual standard stimulus presentation	0.0	standard	n/a
294.697	0.2	visual standard stimulus presentation	0.0	standard	n/a
297.096	0.2	visual standard stimulus presentation	0.0	standard	n/a
300.091	0.2	visual standard stimulus presentation	0.0	standard	n/a
302.689	0.2	visual standard stimulus presentation	0.0	standard	n/a
304.69	0.2	visual standard stimulus presentation	0.0	standard	n/a
307.288	0.2	visual standard stimulus presentation	0.0	standard	n/a
309.688	0.2	visual standard stimulus presentation	0.0	standard	n/a
311.888	0.2	visual standard stimulus presentation	0.0	standard	n/a
314.089	0.2	visual standard stimulus presentation	0.0	standard	n/a
n/a	n/a	n/a	4.241	0	standard
n/a	n/a	n/a	6.855	0	standard
n/a	n/a	n/a	8.873	0	standard
