onset	duration	trial_number	event_type	executed_movement	correct_movement	shown_stimulus	reported_gs	correct_gs	included_trial	reason_for_exclusion
12.9799999999959	22.02	1	stimulus	n/a	n/a	white X	n/a	n/a	0	test trial
35	10.6853892999934	1	stimulus	n/a	n/a	OQCQQGGG	3	3	0	test trial
35.6479891000054	0	1	finger press	2	2	n/a	n/a	n/a	0	test trial
36.136159799993	0	1	finger press	1	1	n/a	n/a	n/a	0	test trial
36.5999680999957	0	1	finger press	2	2	n/a	n/a	n/a	0	test trial
37.0560472999932	0	1	finger press	3	3	n/a	n/a	n/a	0	test trial
37.5200585999992	0	1	finger press	2	2	n/a	n/a	n/a	0	test trial
37.9599879000016	0	1	finger press	1	1	n/a	n/a	n/a	0	test trial
38.7120727000001	0	1	finger press	3	3	n/a	n/a	n/a	0	test trial
39.2320756999979	0	1	finger press	2	2	n/a	n/a	n/a	0	test trial
39.9359543000028	0	1	finger press	4	4	n/a	n/a	n/a	0	test trial
40.4646530000027	0	1	finger press	2	2	n/a	n/a	n/a	0	test trial
40.944041900002	0	1	finger press	4	4	n/a	n/a	n/a	0	test trial
41.4398590000055	0	1	finger press	1	1	n/a	n/a	n/a	0	test trial
45.679999999993	5	1	stimulus	n/a	n/a	white X	n/a	n/a	0	test trial
53.1000000000058	23.02	2	stimulus	n/a	n/a	white X	n/a	n/a	1	n/a
76.1182171999972	8.29491670000425	2	stimulus	n/a	n/a	GQQOOOCG	2	2	1	n/a
76.6399649999948	0	2	finger press	2	2	n/a	n/a	n/a	1	n/a
77.215797900004	0	2	finger press	1	1	n/a	n/a	n/a	1	n/a
77.6482067000034	0	2	finger press	2	2	n/a	n/a	n/a	1	n/a
78.2400297999993	0	2	finger press	3	3	n/a	n/a	n/a	1	n/a
78.775907999996	0	2	finger press	2	2	n/a	n/a	n/a	1	n/a
79.3440795999923	0	2	finger press	1	1	n/a	n/a	n/a	1	n/a
79.9038757999951	0	2	finger press	3	3	n/a	n/a	n/a	1	n/a
80.4720705999935	0	2	finger press	2	2	n/a	n/a	n/a	1	n/a
81.0640686999977	0	2	finger press	4	4	n/a	n/a	n/a	1	n/a
81.6238690000027	0	2	finger press	2	2	n/a	n/a	n/a	1	n/a
82.312053600006	0	2	finger press	4	4	n/a	n/a	n/a	1	n/a
82.8640780999995	0	2	finger press	1	1	n/a	n/a	n/a	1	n/a
84.3999999999942	5	2	stimulus	n/a	n/a	white X	n/a	n/a	1	n/a
91.6000000000058	23	3	stimulus	n/a	n/a	white X	n/a	n/a	1	n/a
114.612698700003	8.7743432999996	3	stimulus	n/a	n/a	QGCQQGCG	3	3	1	n/a
115.199993500006	0	3	finger press	2	2	n/a	n/a	n/a	1	n/a
115.800508300003	0	3	finger press	1	1	n/a	n/a	n/a	1	n/a
116.304092199993	0	3	finger press	2	2	n/a	n/a	n/a	1	n/a
116.887985599999	0	3	finger press	3	3	n/a	n/a	n/a	1	n/a
117.455958699997	0	3	finger press	2	2	n/a	n/a	n/a	1	n/a
118.088437900005	0	3	finger press	1	1	n/a	n/a	n/a	1	n/a
118.616028100005	0	3	finger press	3	3	n/a	n/a	n/a	1	n/a
119.208066699997	0	3	finger press	2	2	n/a	n/a	n/a	1	n/a
119.920076900002	0	3	finger press	4	4	n/a	n/a	n/a	1	n/a
120.504578799999	0	3	finger press	2	2	n/a	n/a	n/a	1	n/a
121.024056199996	0	3	finger press	4	4	n/a	n/a	n/a	1	n/a
121.664072999993	0	3	finger press	1	1	n/a	n/a	n/a	1	n/a
123.380000000005	5	3	stimulus	n/a	n/a	white X	n/a	n/a	1	n/a
130.940000000002	23	4	stimulus	n/a	n/a	white X	n/a	n/a	1	n/a
153.9509311	9.67420019999554	4	stimulus	n/a	n/a	GOCGQCQO	2	2	1	n/a
154.519992200003	0	4	finger press	2	2	n/a	n/a	n/a	1	n/a
155.072115899995	0	4	finger press	1	1	n/a	n/a	n/a	1	n/a
155.608080100006	0	4	finger press	2	2	n/a	n/a	n/a	1	n/a
156.136434	0	4	finger press	3	3	n/a	n/a	n/a	1	n/a
156.711992600001	0	4	finger press	2	2	n/a	n/a	n/a	1	n/a
157.240420000002	0	4	finger press	1	1	n/a	n/a	n/a	1	n/a
157.760053599995	0	4	finger press	3	3	n/a	n/a	n/a	1	n/a
158.320046199995	0	4	finger press	2	2	n/a	n/a	n/a	1	n/a
158.888375099996	0	4	finger press	4	4	n/a	n/a	n/a	1	n/a
159.455854999993	0	4	finger press	2	2	n/a	n/a	n/a	1	n/a
159.944019500006	0	4	finger press	4	4	n/a	n/a	n/a	1	n/a
160.463881499993	0	4	finger press	1	1	n/a	n/a	n/a	1	n/a
163.619999999995	5	4	stimulus	n/a	n/a	white X	n/a	n/a	1	n/a
170.380000000005	24	5	stimulus	n/a	n/a	white X	n/a	n/a	1	n/a
194.393274300004	8.64900109999871	5	stimulus	n/a	n/a	OOGGQCQQ	2	2	1	n/a
194.824103499996	0	5	finger press	2	2	n/a	n/a	n/a	1	n/a
195.3919838	0	5	finger press	1	1	n/a	n/a	n/a	1	n/a
195.903914099996	0	5	finger press	2	2	n/a	n/a	n/a	1	n/a
196.399946399993	0	5	finger press	3	3	n/a	n/a	n/a	1	n/a
196.975993999993	0	5	finger press	2	2	n/a	n/a	n/a	1	n/a
197.5360201	0	5	finger press	1	1	n/a	n/a	n/a	1	n/a
198.040092900002	0	5	finger press	3	3	n/a	n/a	n/a	1	n/a
198.552433399993	0	5	finger press	2	2	n/a	n/a	n/a	1	n/a
199.160046299992	0	5	finger press	4	4	n/a	n/a	n/a	1	n/a
199.679713499994	0	5	finger press	2	2	n/a	n/a	n/a	1	n/a
200.176054299998	0	5	finger press	4	4	n/a	n/a	n/a	1	n/a
200.752257800006	0	5	finger press	1	1	n/a	n/a	n/a	1	n/a
203.039999999994	5	5	stimulus	n/a	n/a	white X	n/a	n/a	1	n/a
210.039999999994	21	6	stimulus	n/a	n/a	white X	n/a	n/a	1	n/a
231.056541500002	11.1590354999935	6	stimulus	n/a	n/a	GQOQQGOC	2	2	1	n/a
231.632086500002	0	6	finger press	2	2	n/a	n/a	n/a	1	n/a
232.175920399997	0	6	finger press	1	1	n/a	n/a	n/a	1	n/a
232.672073299997	0	6	finger press	2	2	n/a	n/a	n/a	1	n/a
233.1839855	0	6	finger press	3	3	n/a	n/a	n/a	1	n/a
233.704257399993	0	6	finger press	2	2	n/a	n/a	n/a	1	n/a
234.280019900005	0	6	finger press	1	1	n/a	n/a	n/a	1	n/a
234.872766400003	0	6	finger press	3	3	n/a	n/a	n/a	1	n/a
235.416080399998	0	6	finger press	2	2	n/a	n/a	n/a	1	n/a
235.983989100001	0	6	finger press	4	4	n/a	n/a	n/a	1	n/a
236.543741899994	0	6	finger press	2	2	n/a	n/a	n/a	1	n/a
237.0239975	0	6	finger press	4	4	n/a	n/a	n/a	1	n/a
237.600058099997	0	6	finger press	1	1	n/a	n/a	n/a	1	n/a
242.199999999997	5	6	stimulus	n/a	n/a	white X	n/a	n/a	1	n/a
249.139999999999	24.02	7	stimulus	n/a	n/a	white X	n/a	n/a	1	n/a
273.165706200001	8.08922690000327	7	stimulus	n/a	n/a	OCCQCGCQ	1	1	1	n/a
273.624026899997	0	7	finger press	2	2	n/a	n/a	n/a	1	n/a
274.184037400002	0	7	finger press	1	1	n/a	n/a	n/a	1	n/a
274.704023700004	0	7	finger press	2	2	n/a	n/a	n/a	1	n/a
275.248055799995	0	7	finger press	3	3	n/a	n/a	n/a	1	n/a
275.775968300004	0	7	finger press	2	2	n/a	n/a	n/a	1	n/a
276.319940600006	0	7	finger press	1	1	n/a	n/a	n/a	1	n/a
276.824012700003	0	7	finger press	3	3	n/a	n/a	n/a	1	n/a
277.367923900005	0	7	finger press	2	2	n/a	n/a	n/a	1	n/a
278.152024199997	0	7	finger press	4	4	n/a	n/a	n/a	1	n/a
278.7281544	0	7	finger press	2	2	n/a	n/a	n/a	1	n/a
279.232270099994	0	7	finger press	4	4	n/a	n/a	n/a	1	n/a
279.832013399995	0	7	finger press	1	1	n/a	n/a	n/a	1	n/a
281.240000000005	5	7	stimulus	n/a	n/a	white X	n/a	n/a	1	n/a
288.119999999995	25.02	8	stimulus	n/a	n/a	white X	n/a	n/a	1	n/a
313.150093200005	8.970668199996	8	stimulus	n/a	n/a	QQOCOOQO	0	0	1	n/a
313.552110300006	0	8	finger press	2	2	n/a	n/a	n/a	1	n/a
314.104036999997	0	8	finger press	1	1	n/a	n/a	n/a	1	n/a
314.607912399995	0	8	finger press	2	2	n/a	n/a	n/a	1	n/a
315.128112599996	0	8	finger press	3	3	n/a	n/a	n/a	1	n/a
315.6640797	0	8	finger press	2	2	n/a	n/a	n/a	1	n/a
316.239876099993	0	8	finger press	1	1	n/a	n/a	n/a	1	n/a
316.736099400005	0	8	finger press	3	3	n/a	n/a	n/a	1	n/a
317.296053900005	0	8	finger press	2	2	n/a	n/a	n/a	1	n/a
317.912117999993	0	8	finger press	4	4	n/a	n/a	n/a	1	n/a
318.512709000002	0	8	finger press	2	2	n/a	n/a	n/a	1	n/a
319.015954000002	0	8	finger press	4	4	n/a	n/a	n/a	1	n/a
319.624084700001	0	8	finger press	1	1	n/a	n/a	n/a	1	n/a
322.119999999995	5	8	stimulus	n/a	n/a	white X	n/a	n/a	1	n/a
331.880000000005	23	9	stimulus	n/a	n/a	white X	n/a	n/a	1	n/a
354.891128899995	8.312511000011	9	stimulus	n/a	n/a	QCGOGOOG	3	3	1	n/a
355.432102199993	0	9	finger press	2	2	n/a	n/a	n/a	1	n/a
355.992072499997	0	9	finger press	1	1	n/a	n/a	n/a	1	n/a
356.519898400002	0	9	finger press	2	2	n/a	n/a	n/a	1	n/a
356.999951000005	0	9	finger press	3	3	n/a	n/a	n/a	1	n/a
357.567988099996	0	9	finger press	2	2	n/a	n/a	n/a	1	n/a
358.168449999997	0	9	finger press	1	1	n/a	n/a	n/a	1	n/a
358.679948299992	0	9	finger press	3	3	n/a	n/a	n/a	1	n/a
359.224030500001	0	9	finger press	2	2	n/a	n/a	n/a	1	n/a
359.792104399996	0	9	finger press	4	4	n/a	n/a	n/a	1	n/a
360.344100799994	0	9	finger press	2	2	n/a	n/a	n/a	1	n/a
360.848239700004	0	9	finger press	4	4	n/a	n/a	n/a	1	n/a
361.424096799994	0	9	finger press	1	1	n/a	n/a	n/a	1	n/a
363.199999999997	5	9	stimulus	n/a	n/a	white X	n/a	n/a	1	n/a
372.419999999998	23.02	10	stimulus	n/a	n/a	white X	n/a	n/a	1	n/a
395.443387799998	10.3707305999997	10	stimulus	n/a	n/a	QQCOGGOQ	2	2	1	n/a
396.415911599994	0	10	finger press	2	2	n/a	n/a	n/a	1	n/a
396.975824399997	0	10	finger press	1	1	n/a	n/a	n/a	1	n/a
397.479964400001	0	10	finger press	2	2	n/a	n/a	n/a	1	n/a
398.080482599995	0	10	finger press	3	3	n/a	n/a	n/a	1	n/a
398.623971499997	0	10	finger press	2	2	n/a	n/a	n/a	1	n/a
399.223980800001	0	10	finger press	1	1	n/a	n/a	n/a	1	n/a
399.736082799995	0	10	finger press	3	3	n/a	n/a	n/a	1	n/a
400.327869999994	0	10	finger press	2	2	n/a	n/a	n/a	1	n/a
400.904700999992	0	10	finger press	4	4	n/a	n/a	n/a	1	n/a
401.471805599998	0	10	finger press	2	2	n/a	n/a	n/a	1	n/a
401.952135900006	0	10	finger press	4	4	n/a	n/a	n/a	1	n/a
402.512040100002	0	10	finger press	1	1	n/a	n/a	n/a	1	n/a
405.800000000003	5	10	stimulus	n/a	n/a	white X	n/a	n/a	1	n/a
412.339999999997	22	11	stimulus	n/a	n/a	white X	n/a	n/a	1	n/a
434.3584443	9.73162930000399	11	stimulus	n/a	n/a	CQCCOQOC	0	0	1	n/a
434.847934599995	0	11	finger press	2	2	n/a	n/a	n/a	1	n/a
435.432468400002	0	11	finger press	1	1	n/a	n/a	n/a	1	n/a
435.952087400001	0	11	finger press	2	2	n/a	n/a	n/a	1	n/a
436.479999300005	0	11	finger press	3	3	n/a	n/a	n/a	1	n/a
437.024078000002	0	11	finger press	2	2	n/a	n/a	n/a	1	n/a
437.631906099996	0	11	finger press	1	1	n/a	n/a	n/a	1	n/a
438.1440669	0	11	finger press	3	3	n/a	n/a	n/a	1	n/a
438.680084599997	0	11	finger press	2	2	n/a	n/a	n/a	1	n/a
439.239956599995	0	11	finger press	4	4	n/a	n/a	n/a	1	n/a
439.816094299997	0	11	finger press	2	2	n/a	n/a	n/a	1	n/a
440.280103099998	0	11	finger press	4	4	n/a	n/a	n/a	1	n/a
440.872381900001	0	11	finger press	1	1	n/a	n/a	n/a	1	n/a
444.080000000002	5	11	stimulus	n/a	n/a	white X	n/a	n/a	1	n/a
