onset	duration	trial_type	Object_Cond	Validity_Cond	Obj_Accuracy	Obj_Acc_RT	Subseq_Recog	Subseq_Recog_RT	Subseq_Source_Mem_Acc	Subseq_Source_Mem_Acc_RT
4.0001	1.0	Valid Other Obj Cue: valid cue where following stimulus was an untested or no response object	OBJ	V	1	0.74809	UT	UT	UT	UT
10.0001	0.5	Valid Other Obj: stimulus that was an untested or no response object and that followed a valid cue	OBJ	V	1	0.74809	UT	UT	UT	UT
12.0015	1.0	Valid Other Greeble Cue: valid cue where following stimulus was an untested or no response greeble	GRE	V	1	0.61329	UT	UT	UT	UT
16.0015	0.5	Valid Other Greeble: stimulus that was an untested or no response greeble and that followed a valid cue	GRE	V	1	0.61329	UT	UT	UT	UT
18.000999999999998	1.0	Valid LC-Hit Cue: valid cue where following object was a subsequent low confidence hit	OBJ	V	1	0.62264	LC-HIT	 3.0011	1	0.48707
22.000999999999998	0.5	Valid LC-Hit Obj: object that was a subsequent low confidence hit and that followed a valid cue	OBJ	V	1	0.62264	LC-HIT	 3.0011	1	0.48707
24.0015	1.0	Valid HC-Hit Cue: valid cue where following object was a subsequent high confidence hit	OBJ	V	1	0.58986	HC-HIT	 1.8762	1	0.91629
30.0015	0.5	Valid HC-Hit Obj: object that was a subsequent high confidence hit and that followed a valid cue	OBJ	V	1	0.58986	HC-HIT	 1.8762	1	0.91629
32.0017	1.0	Valid HC-Hit Cue: valid cue where following object was a subsequent high confidence hit	OBJ	V	1	0.59132	HC-HIT	 2.1349	NR	NR
36.0017	0.5	Valid HC-Hit Obj: object that was a subsequent high confidence hit and that followed a valid cue	OBJ	V	1	0.59132	HC-HIT	 2.1349	NR	NR
40.0011	1.0	Invalid LC-Hit Cue: invalid cue where following object was a subsequent low confidence hit	OBJ	NV	1	0.62532	LC-HIT	 2.9604	0	1.0393
42.0011	0.5	Invalid LC-Hit Obj: object that was a subsequent low confidence hit and that followed an invalid cue	OBJ	NV	1	0.62532	LC-HIT	 2.9604	0	1.0393
48.001999999999995	1.0	Valid Other Greeble Cue: valid cue where following stimulus was an untested or no response greeble	GRE	V	1	0.53517	UT	UT	UT	UT
52.001999999999995	0.5	Valid Other Greeble: stimulus that was an untested or no response greeble and that followed a valid cue	GRE	V	1	0.53517	UT	UT	UT	UT
54.0013	1.0	Valid HC-Hit Cue: valid cue where following object was a subsequent high confidence hit	OBJ	V	1	0.51917	HC-HIT	 1.7426	0	0.76477
60.0013	0.5	Valid HC-Hit Obj: object that was a subsequent high confidence hit and that followed a valid cue	OBJ	V	1	0.51917	HC-HIT	 1.7426	0	0.76477
64.0014	1.0	Valid Miss Cue: valid cue where following object was a subsequent miss	OBJ	V	1	0.63877	HC-MISS	 2.4185	UT	UT
68.0014	0.5	Valid Miss Obj: object that was a subsequent miss and that followed a valid cue	OBJ	V	1	0.63877	HC-MISS	 2.4185	UT	UT
70.002	1.0	Invalid HC-Hit Cue: invalid cue where following object was a subsequent high confidence hit	OBJ	NV	1	0.63844	HC-HIT	 1.2957	1	1.4017
76.002	0.5	Invalid HC-Hit Obj: object that was a subsequent high confidence hit and that followed an invalid cue	OBJ	NV	1	0.63844	HC-HIT	 1.2957	1	1.4017
80.0012	1.0	Valid HC-Hit Cue: valid cue where following object was a subsequent high confidence hit	OBJ	V	1	0.67066	HC-HIT	 1.3858	1	1.855
82.0012	0.5	Valid HC-Hit Obj: object that was a subsequent high confidence hit and that followed a valid cue	OBJ	V	1	0.67066	HC-HIT	 1.3858	1	1.855
84.0017	1.0	Valid HC-Hit Cue: valid cue where following object was a subsequent high confidence hit	OBJ	V	NR	NR	HC-HIT	  1.375	1	0.80392
86.0017	0.5	Valid HC-Hit Obj: object that was a subsequent high confidence hit and that followed a valid cue	OBJ	V	NR	NR	HC-HIT	  1.375	1	0.80392
88.0013	1.0	Valid Other Greeble Cue: valid cue where following stimulus was an untested or no response greeble	GRE	V	1	0.60741	UT	UT	UT	UT
90.0013	0.5	Valid Other Greeble: stimulus that was an untested or no response greeble and that followed a valid cue	GRE	V	1	0.60741	UT	UT	UT	UT
92.0016	1.0	Valid HC-Hit Cue: valid cue where following object was a subsequent high confidence hit	OBJ	V	1	0.47673	HC-HIT	 2.9153	1	0.73148
96.0016	0.5	Valid HC-Hit Obj: object that was a subsequent high confidence hit and that followed a valid cue	OBJ	V	1	0.47673	HC-HIT	 2.9153	1	0.73148
98.0009	1.0	Invalid Miss Cue: invalid cue where following object was a subsequent miss	OBJ	NV	1	0.62407	HC-MISS	 0.9256	UT	UT
104.0009	0.5	Invalid Miss Obj: object that was a subsequent miss and that followed an invalid cue	OBJ	NV	1	0.62407	HC-MISS	 0.9256	UT	UT
106.0008	1.0	Invalid HC-Hit Cue: invalid cue where following object was a subsequent high confidence hit	OBJ	NV	1	0.55589	HC-HIT	 1.1387	1	1.6605
108.0008	0.5	Invalid HC-Hit Obj: object that was a subsequent high confidence hit and that followed an invalid cue	OBJ	NV	1	0.55589	HC-HIT	 1.1387	1	1.6605
112.0016	1.0	Valid LC-Hit Cue: valid cue where following object was a subsequent low confidence hit	OBJ	V	1	0.55845	LC-HIT	 3.3086	1	1.7983
114.0016	0.5	Valid LC-Hit Obj: object that was a subsequent low confidence hit and that followed a valid cue	OBJ	V	1	0.55845	LC-HIT	 3.3086	1	1.7983
116.0015	1.0	Valid Other Greeble Cue: valid cue where following stimulus was an untested or no response greeble	GRE	V	1	0.58233	UT	UT	UT	UT
122.0015	0.5	Valid Other Greeble: stimulus that was an untested or no response greeble and that followed a valid cue	GRE	V	1	0.58233	UT	UT	UT	UT
124.0008	1.0	Valid HC-Hit Cue: valid cue where following object was a subsequent high confidence hit	OBJ	V	1	0.52434	HC-HIT	 1.2785	1	0.96998
130.0008	0.5	Valid HC-Hit Obj: object that was a subsequent high confidence hit and that followed a valid cue	OBJ	V	1	0.52434	HC-HIT	 1.2785	1	0.96998
132.0015	1.0	Valid Other Greeble Cue: valid cue where following stimulus was an untested or no response greeble	GRE	V	1	0.65593	UT	UT	UT	UT
134.0015	0.5	Valid Other Greeble: stimulus that was an untested or no response greeble and that followed a valid cue	GRE	V	1	0.65593	UT	UT	UT	UT
136.0017	1.0	Valid Miss Cue: valid cue where following object was a subsequent miss	OBJ	V	1	0.57305	HC-MISS	 1.2147	UT	UT
138.0017	0.5	Valid Miss Obj: object that was a subsequent miss and that followed a valid cue	OBJ	V	1	0.57305	HC-MISS	 1.2147	UT	UT
142.0017	1.0	Valid HC-Hit Cue: valid cue where following object was a subsequent high confidence hit	OBJ	V	1	0.54803	HC-HIT	 1.0218	1	0.96385
146.0017	0.5	Valid HC-Hit Obj: object that was a subsequent high confidence hit and that followed a valid cue	OBJ	V	1	0.54803	HC-HIT	 1.0218	1	0.96385
152.0012	1.0	Valid HC-Hit Cue: valid cue where following object was a subsequent high confidence hit	OBJ	V	1	0.43543	HC-HIT	 1.7207	1	0.3365
158.0012	0.5	Valid HC-Hit Obj: object that was a subsequent high confidence hit and that followed a valid cue	OBJ	V	1	0.43543	HC-HIT	 1.7207	1	0.3365
160.001	1.0	Valid Other Greeble Cue: valid cue where following stimulus was an untested or no response greeble	GRE	V	1	 0.6115	UT	UT	UT	UT
162.001	0.5	Valid Other Greeble: stimulus that was an untested or no response greeble and that followed a valid cue	GRE	V	1	 0.6115	UT	UT	UT	UT
164.0017	1.0	Valid Other Greeble Cue: valid cue where following stimulus was an untested or no response greeble	GRE	V	1	0.54732	UT	UT	UT	UT
170.0017	0.5	Valid Other Greeble: stimulus that was an untested or no response greeble and that followed a valid cue	GRE	V	1	0.54732	UT	UT	UT	UT
172.0018	1.0	Valid Other Greeble Cue: valid cue where following stimulus was an untested or no response greeble	GRE	V	1	0.45496	UT	UT	UT	UT
178.0018	0.5	Valid Other Greeble: stimulus that was an untested or no response greeble and that followed a valid cue	GRE	V	1	0.45496	UT	UT	UT	UT
182.0018	1.0	Invalid Miss Cue: invalid cue where following object was a subsequent miss	OBJ	NV	1	0.64185	LC-MISS	 1.6153	UT	UT
186.0018	0.5	Invalid Miss Obj: object that was a subsequent miss and that followed an invalid cue	OBJ	NV	1	0.64185	LC-MISS	 1.6153	UT	UT
188.0011	1.0	Valid HC-Hit Cue: valid cue where following object was a subsequent high confidence hit	OBJ	V	1	0.56423	HC-HIT	 1.0026	0	1.1359
192.0011	0.5	Valid HC-Hit Obj: object that was a subsequent high confidence hit and that followed a valid cue	OBJ	V	1	0.56423	HC-HIT	 1.0026	0	1.1359
194.0016	1.0	Valid Other Greeble Cue: valid cue where following stimulus was an untested or no response greeble	GRE	V	1	0.58247	UT	UT	UT	UT
198.0016	0.5	Valid Other Greeble: stimulus that was an untested or no response greeble and that followed a valid cue	GRE	V	1	0.58247	UT	UT	UT	UT
200.0021	1.0	Valid Other Greeble Cue: valid cue where following stimulus was an untested or no response greeble	GRE	V	1	0.48166	UT	UT	UT	UT
206.0021	0.5	Valid Other Greeble: stimulus that was an untested or no response greeble and that followed a valid cue	GRE	V	1	0.48166	UT	UT	UT	UT
208.0022	1.0	Valid Miss Cue: valid cue where following object was a subsequent miss	OBJ	V	1	0.66586	HC-MISS	  1.192	UT	UT
210.0022	0.5	Valid Miss Obj: object that was a subsequent miss and that followed a valid cue	OBJ	V	1	0.66586	HC-MISS	  1.192	UT	UT
212.0026	1.0	Valid Other Obj Cue: valid cue where following stimulus was an untested or no response object	OBJ	V	1	0.50972	UT	UT	UT	UT
214.0026	0.5	Valid Other Obj: stimulus that was an untested or no response object and that followed a valid cue	OBJ	V	1	0.50972	UT	UT	UT	UT
216.0009	1.0	Valid HC-Hit Cue: valid cue where following object was a subsequent high confidence hit	OBJ	V	NR	NR	HC-HIT	 1.5664	0	1.6849
220.0009	0.5	Valid HC-Hit Obj: object that was a subsequent high confidence hit and that followed a valid cue	OBJ	V	NR	NR	HC-HIT	 1.5664	0	1.6849
224.0009	1.0	Valid Other Greeble Cue: valid cue where following stimulus was an untested or no response greeble	GRE	V	1	0.48939	UT	UT	UT	UT
230.0009	0.5	Valid Other Greeble: stimulus that was an untested or no response greeble and that followed a valid cue	GRE	V	1	0.48939	UT	UT	UT	UT
234.0012	1.0	Valid Other Obj Cue: valid cue where following stimulus was an untested or no response object	OBJ	V	1	 0.5561	NR	NR	UT	UT
238.0012	0.5	Valid Other Obj: stimulus that was an untested or no response object and that followed a valid cue	OBJ	V	1	 0.5561	NR	NR	UT	UT
240.0018	1.0	Invalid Other Greeble Cue: invalid cue where following stimulus was an untested or no response greeble	GRE	NV	1	0.70349	UT	UT	UT	UT
242.0018	0.5	Invalid Other Greeble: stimulus that was an untested or no response greeble and that followed a invalid cue	GRE	NV	1	0.70349	UT	UT	UT	UT
244.0015	1.0	Invalid HC-Hit Cue: invalid cue where following object was a subsequent high confidence hit	OBJ	NV	1	 0.7147	HC-HIT	 2.3307	0	0.94293
246.0015	0.5	Invalid HC-Hit Obj: object that was a subsequent high confidence hit and that followed an invalid cue	OBJ	NV	1	 0.7147	HC-HIT	 2.3307	0	0.94293
248.0009	1.0	Valid Other Greeble Cue: valid cue where following stimulus was an untested or no response greeble	GRE	V	1	0.59634	UT	UT	UT	UT
252.0009	0.5	Valid Other Greeble: stimulus that was an untested or no response greeble and that followed a valid cue	GRE	V	1	0.59634	UT	UT	UT	UT
254.00099999999998	1.0	Valid Other Obj Cue: valid cue where following stimulus was an untested or no response object	OBJ	V	1	  0.548	UT	UT	UT	UT
260.001	0.5	Valid Other Obj: stimulus that was an untested or no response object and that followed a valid cue	OBJ	V	1	  0.548	UT	UT	UT	UT
262.0008	1.0	Valid Miss Cue: valid cue where following object was a subsequent miss	OBJ	V	1	 0.5998	LC-MISS	 1.8194	UT	UT
264.0008	0.5	Valid Miss Obj: object that was a subsequent miss and that followed a valid cue	OBJ	V	1	 0.5998	LC-MISS	 1.8194	UT	UT
266.0017	1.0	Valid HC-Hit Cue: valid cue where following object was a subsequent high confidence hit	OBJ	V	1	0.47833	HC-HIT	 1.4207	0	1.7688
270.0017	0.5	Valid HC-Hit Obj: object that was a subsequent high confidence hit and that followed a valid cue	OBJ	V	1	0.47833	HC-HIT	 1.4207	0	1.7688
272.0009	1.0	Valid Other Obj Cue: valid cue where following stimulus was an untested or no response object	OBJ	V	1	0.52894	UT	UT	UT	UT
278.0009	0.5	Valid Other Obj: stimulus that was an untested or no response object and that followed a valid cue	OBJ	V	1	0.52894	UT	UT	UT	UT
280.0021	1.0	Valid Miss Cue: valid cue where following object was a subsequent miss	OBJ	V	1	0.55231	HC-MISS	 2.0453	UT	UT
286.0021	0.5	Valid Miss Obj: object that was a subsequent miss and that followed a valid cue	OBJ	V	1	0.55231	HC-MISS	 2.0453	UT	UT
288.0015	1.0	Invalid Other Greeble Cue: invalid cue where following stimulus was an untested or no response greeble	GRE	NV	1	0.58714	UT	UT	UT	UT
292.0015	0.5	Invalid Other Greeble: stimulus that was an untested or no response greeble and that followed a invalid cue	GRE	NV	1	0.58714	UT	UT	UT	UT
294.0014	1.0	Valid HC-Hit Cue: valid cue where following object was a subsequent high confidence hit	OBJ	V	1	0.48042	HC-HIT	 2.8666	0	1.3677
300.0014	0.5	Valid HC-Hit Obj: object that was a subsequent high confidence hit and that followed a valid cue	OBJ	V	1	0.48042	HC-HIT	 2.8666	0	1.3677
302.0015	1.0	Valid LC-Hit Cue: valid cue where following object was a subsequent low confidence hit	OBJ	V	1	 0.6557	LC-HIT	 1.9433	0	1.051
304.0015	0.5	Valid LC-Hit Obj: object that was a subsequent low confidence hit and that followed a valid cue	OBJ	V	1	 0.6557	LC-HIT	 1.9433	0	1.051
306.0019	1.0	Invalid HC-Hit Cue: invalid cue where following object was a subsequent high confidence hit	OBJ	NV	0	0.64117	HC-HIT	0.90508	0	0.31681
310.0019	0.5	Invalid HC-Hit Obj: object that was a subsequent high confidence hit and that followed an invalid cue	OBJ	NV	0	0.64117	HC-HIT	0.90508	0	0.31681
314.0008	1.0	Valid Miss Cue: valid cue where following object was a subsequent miss	OBJ	V	1	0.63391	HC-MISS	 1.7732	UT	UT
316.0008	0.5	Valid Miss Obj: object that was a subsequent miss and that followed a valid cue	OBJ	V	1	0.63391	HC-MISS	 1.7732	UT	UT
320.0014	1.0	Valid Other Greeble Cue: valid cue where following stimulus was an untested or no response greeble	GRE	V	1	0.65146	UT	UT	UT	UT
322.0014	0.5	Valid Other Greeble: stimulus that was an untested or no response greeble and that followed a valid cue	GRE	V	1	0.65146	UT	UT	UT	UT
324.0014	1.0	Valid HC-Hit Cue: valid cue where following object was a subsequent high confidence hit	OBJ	V	1	0.60473	HC-HIT	 1.8369	0	0.4082
328.0014	0.5	Valid HC-Hit Obj: object that was a subsequent high confidence hit and that followed a valid cue	OBJ	V	1	0.60473	HC-HIT	 1.8369	0	0.4082
330.0008	1.0	Valid Other Obj Cue: valid cue where following stimulus was an untested or no response object	OBJ	V	1	0.65801	UT	UT	UT	UT
332.0008	0.5	Valid Other Obj: stimulus that was an untested or no response object and that followed a valid cue	OBJ	V	1	0.65801	UT	UT	UT	UT
334.0015	1.0	Valid HC-Hit Cue: valid cue where following object was a subsequent high confidence hit	OBJ	V	1	0.56538	HC-HIT	  1.291	0	0.74099
336.0015	0.5	Valid HC-Hit Obj: object that was a subsequent high confidence hit and that followed a valid cue	OBJ	V	1	0.56538	HC-HIT	  1.291	0	0.74099
338.0019	1.0	Valid HC-Hit Cue: valid cue where following object was a subsequent high confidence hit	OBJ	V	NR	NR	HC-HIT	 1.2794	1	1.2813
342.0019	0.5	Valid HC-Hit Obj: object that was a subsequent high confidence hit and that followed a valid cue	OBJ	V	NR	NR	HC-HIT	 1.2794	1	1.2813
344.0011	1.0	Valid Other Greeble Cue: valid cue where following stimulus was an untested or no response greeble	GRE	V	1	0.63938	UT	UT	UT	UT
350.0011	0.5	Valid Other Greeble: stimulus that was an untested or no response greeble and that followed a valid cue	GRE	V	1	0.63938	UT	UT	UT	UT
352.0017	1.0	Invalid HC-Hit Cue: invalid cue where following object was a subsequent high confidence hit	OBJ	NV	1	0.60805	HC-HIT	 1.9183	1	0.60503
356.0017	0.5	Invalid HC-Hit Obj: object that was a subsequent high confidence hit and that followed an invalid cue	OBJ	NV	1	0.60805	HC-HIT	 1.9183	1	0.60503
358.0017	1.0	Valid HC-Hit Cue: valid cue where following object was a subsequent high confidence hit	OBJ	V	1	0.52802	HC-HIT	 1.8195	0	0.93191
364.0017	0.5	Valid HC-Hit Obj: object that was a subsequent high confidence hit and that followed a valid cue	OBJ	V	1	0.52802	HC-HIT	 1.8195	0	0.93191
