onset	duration	trial_type	Object_Cond	Validity_Cond	Obj_Accuracy	Obj_Acc_RT	Subseq_Recog	Subseq_Recog_RT	Subseq_Source_Mem_Acc	Subseq_Source_Mem_Acc_RT
4.0012	1.0	Valid Other Obj Cue: valid cue where following stimulus was an untested or no response object	OBJ	V	1	0.54484	UT	UT	UT	UT
10.0012	0.5	Valid Other Obj: stimulus that was an untested or no response object and that followed a valid cue	OBJ	V	1	0.54484	UT	UT	UT	UT
12.0012	1.0	Valid Miss Cue: valid cue where following object was a subsequent miss	OBJ	V	1	0.66745	HC-MISS	 1.4659	UT	UT
16.0012	0.5	Valid Miss Obj: object that was a subsequent miss and that followed a valid cue	OBJ	V	1	0.66745	HC-MISS	 1.4659	UT	UT
18.0008	1.0	Valid Other Greeble Cue: valid cue where following stimulus was an untested or no response greeble	GRE	V	1	0.5547	UT	UT	UT	UT
24.0008	0.5	Valid Other Greeble: stimulus that was an untested or no response greeble and that followed a valid cue	GRE	V	1	0.5547	UT	UT	UT	UT
28.0008	1.0	Invalid LC-Hit Cue: invalid cue where following object was a subsequent low confidence hit	OBJ	NV	1	0.66585	LC-HIT	 2.2631	0	0.10296
32.0008	0.5	Invalid LC-Hit Obj: object that was a subsequent low confidence hit and that followed an invalid cue	OBJ	NV	1	0.66585	LC-HIT	 2.2631	0	0.10296
36.0013	1.0	Valid Other Obj Cue: valid cue where following stimulus was an untested or no response object	OBJ	V	1	0.57611	UT	UT	UT	UT
42.0013	0.5	Valid Other Obj: stimulus that was an untested or no response object and that followed a valid cue	OBJ	V	1	0.57611	UT	UT	UT	UT
44.0014	1.0	Valid Other Greeble Cue: valid cue where following stimulus was an untested or no response greeble	GRE	V	1	0.6036699999999999	UT	UT	UT	UT
46.0014	0.5	Valid Other Greeble: stimulus that was an untested or no response greeble and that followed a valid cue	GRE	V	1	0.6036699999999999	UT	UT	UT	UT
48.0008	1.0	Valid Other Greeble Cue: valid cue where following stimulus was an untested or no response greeble	GRE	V	1	0.56503	UT	UT	UT	UT
52.0008	0.5	Valid Other Greeble: stimulus that was an untested or no response greeble and that followed a valid cue	GRE	V	1	0.56503	UT	UT	UT	UT
54.0011	1.0	Valid HC-Hit Cue: valid cue where following object was a subsequent high confidence hit	OBJ	V	0	0.74168	HC-HIT	0.95069	1	1.6478
60.0011	0.5	Valid HC-Hit Obj: object that was a subsequent high confidence hit and that followed a valid cue	OBJ	V	0	0.74168	HC-HIT	0.95069	1	1.6478
62.0017	n/a	n/a	OBJ	NV	1	0.69712	NR	NR	UT	UT
64.0017	n/a	n/a	OBJ	NV	1	0.69712	NR	NR	UT	UT
66.001	1.0	Valid Other Greeble Cue: valid cue where following stimulus was an untested or no response greeble	GRE	V	1	0.5614899999999999	UT	UT	UT	UT
72.001	0.5	Valid Other Greeble: stimulus that was an untested or no response greeble and that followed a valid cue	GRE	V	1	0.5614899999999999	UT	UT	UT	UT
74.0013	1.0	Valid Other Greeble Cue: valid cue where following stimulus was an untested or no response greeble	GRE	V	1	0.6282	UT	UT	UT	UT
76.0013	0.5	Valid Other Greeble: stimulus that was an untested or no response greeble and that followed a valid cue	GRE	V	1	0.6282	UT	UT	UT	UT
78.0014	1.0	Valid HC-Hit Cue: valid cue where following object was a subsequent high confidence hit	OBJ	V	1	0.57371	HC-HIT	 1.0021	1	2.4574
82.0014	0.5	Valid HC-Hit Obj: object that was a subsequent high confidence hit and that followed a valid cue	OBJ	V	1	0.57371	HC-HIT	 1.0021	1	2.4574
84.0017	1.0	Valid HC-Hit Cue: valid cue where following object was a subsequent high confidence hit	OBJ	V	1	0.73727	HC-HIT	 2.8905	0	0.74109
86.0017	0.5	Valid HC-Hit Obj: object that was a subsequent high confidence hit and that followed a valid cue	OBJ	V	1	0.73727	HC-HIT	 2.8905	0	0.74109
88.0007	1.0	Valid Miss Cue: valid cue where following object was a subsequent miss	OBJ	V	1	0.87018	HC-MISS	 2.3381	UT	UT
90.0007	0.5	Valid Miss Obj: object that was a subsequent miss and that followed a valid cue	OBJ	V	1	0.87018	HC-MISS	 2.3381	UT	UT
92.0016	1.0	Invalid LC-Hit Cue: invalid cue where following object was a subsequent low confidence hit	OBJ	NV	1	0.7266199999999999	LC-HIT	 3.5508	0	0.74863
96.0016	0.5	Invalid LC-Hit Obj: object that was a subsequent low confidence hit and that followed an invalid cue	OBJ	NV	1	0.7266199999999999	LC-HIT	 3.5508	0	0.74863
98.0011	1.0	Valid HC-Hit Cue: valid cue where following object was a subsequent high confidence hit	OBJ	V	1	0.56705	HC-HIT	 1.7892	0	1.0185
104.0011	0.5	Valid HC-Hit Obj: object that was a subsequent high confidence hit and that followed a valid cue	OBJ	V	1	0.56705	HC-HIT	 1.7892	0	1.0185
106.0012	1.0	Valid HC-Hit Cue: valid cue where following object was a subsequent high confidence hit	OBJ	V	1	0.56891	HC-HIT	 2.0383	1	3.1287
110.0012	0.5	Valid HC-Hit Obj: object that was a subsequent high confidence hit and that followed a valid cue	OBJ	V	1	0.56891	HC-HIT	 2.0383	1	3.1287
112.0017	1.0	Valid HC-Hit Cue: valid cue where following object was a subsequent high confidence hit	OBJ	V	1	0.57957	HC-HIT	 0.9399	0	0.82987
114.0017	0.5	Valid HC-Hit Obj: object that was a subsequent high confidence hit and that followed a valid cue	OBJ	V	1	0.57957	HC-HIT	 0.9399	0	0.82987
116.0007	1.0	Valid Other Greeble Cue: valid cue where following stimulus was an untested or no response greeble	GRE	V	1	0.5472899999999999	UT	UT	UT	UT
122.0007	0.5	Valid Other Greeble: stimulus that was an untested or no response greeble and that followed a valid cue	GRE	V	1	0.5472899999999999	UT	UT	UT	UT
126.0018	1.0	Valid Miss Cue: valid cue where following object was a subsequent miss	OBJ	V	1	0.601	HC-MISS	 1.3331	UT	UT
132.0018	0.5	Valid Miss Obj: object that was a subsequent miss and that followed a valid cue	OBJ	V	1	0.601	HC-MISS	 1.3331	UT	UT
134.0011	1.0	Valid Other Greeble Cue: valid cue where following stimulus was an untested or no response greeble	GRE	V	1	0.64015	UT	UT	UT	UT
140.0011	0.5	Valid Other Greeble: stimulus that was an untested or no response greeble and that followed a valid cue	GRE	V	1	0.64015	UT	UT	UT	UT
142.0013	1.0	Valid HC-Hit Cue: valid cue where following object was a subsequent high confidence hit	OBJ	V	1	0.59628	HC-HIT	 1.9939	1	0.18984
144.0013	0.5	Valid HC-Hit Obj: object that was a subsequent high confidence hit and that followed a valid cue	OBJ	V	1	0.59628	HC-HIT	 1.9939	1	0.18984
146.0018	1.0	Invalid Other Greeble Cue: invalid cue where following stimulus was an untested or no response greeble	GRE	NV	1	0.58401	UT	UT	UT	UT
148.0018	0.5	Invalid Other Greeble: stimulus that was an untested or no response greeble and that followed a invalid cue	GRE	NV	1	0.58401	UT	UT	UT	UT
150.0008	1.0	Valid Miss Cue: valid cue where following object was a subsequent miss	OBJ	V	1	0.60836	HC-MISS	 1.8998	UT	UT
156.0008	0.5	Valid Miss Obj: object that was a subsequent miss and that followed a valid cue	OBJ	V	1	0.60836	HC-MISS	 1.8998	UT	UT
160.0019	1.0	Valid HC-Hit Cue: valid cue where following object was a subsequent high confidence hit	OBJ	V	1	0.54188	HC-HIT	 2.5404	0	0.22347
166.0019	0.5	Valid HC-Hit Obj: object that was a subsequent high confidence hit and that followed a valid cue	OBJ	V	1	0.54188	HC-HIT	 2.5404	0	0.22347
168.0014	1.0	Invalid HC-Hit Cue: invalid cue where following object was a subsequent high confidence hit	OBJ	NV	1	0.79376	HC-HIT	 2.8134	0	1.6764
170.0014	0.5	Invalid HC-Hit Obj: object that was a subsequent high confidence hit and that followed an invalid cue	OBJ	NV	1	0.79376	HC-HIT	 2.8134	0	1.6764
174.00099999999998	1.0	Valid Other Greeble Cue: valid cue where following stimulus was an untested or no response greeble	GRE	V	1	0.6228100000000001	UT	UT	UT	UT
180.00099999999998	0.5	Valid Other Greeble: stimulus that was an untested or no response greeble and that followed a valid cue	GRE	V	1	0.6228100000000001	UT	UT	UT	UT
182.0013	1.0	Valid HC-Hit Cue: valid cue where following object was a subsequent high confidence hit	OBJ	V	1	0.5655600000000001	HC-HIT	 2.0146	1	0.86366
188.0013	0.5	Valid HC-Hit Obj: object that was a subsequent high confidence hit and that followed a valid cue	OBJ	V	1	0.5655600000000001	HC-HIT	 2.0146	1	0.86366
190.0009	1.0	Valid Other Obj Cue: valid cue where following stimulus was an untested or no response object	OBJ	V	1	0.52542	UT	UT	UT	UT
196.0009	0.5	Valid Other Obj: stimulus that was an untested or no response object and that followed a valid cue	OBJ	V	1	0.52542	UT	UT	UT	UT
198.0018	1.0	Valid Other Obj Cue: valid cue where following stimulus was an untested or no response object	OBJ	V	1	0.66586	UT	UT	UT	UT
200.0018	0.5	Valid Other Obj: stimulus that was an untested or no response object and that followed a valid cue	OBJ	V	1	0.66586	UT	UT	UT	UT
202.0011	1.0	Valid HC-Hit Cue: valid cue where following object was a subsequent high confidence hit	OBJ	V	1	0.51702	HC-HIT	0.98512	0	0.1926
206.0011	0.5	Valid HC-Hit Obj: object that was a subsequent high confidence hit and that followed a valid cue	OBJ	V	1	0.51702	HC-HIT	0.98512	0	0.1926
208.0011	1.0	Valid LC-Hit Cue: valid cue where following object was a subsequent low confidence hit	OBJ	V	1	0.60511	LC-HIT	 2.6201	1	2.6195
212.0011	0.5	Valid LC-Hit Obj: object that was a subsequent low confidence hit and that followed a valid cue	OBJ	V	1	0.60511	LC-HIT	 2.6201	1	2.6195
218.0017	1.0	Invalid HC-Hit Cue: invalid cue where following object was a subsequent high confidence hit	OBJ	NV	1	0.70423	HC-HIT	 1.1855	1	0.41014
224.0017	0.5	Invalid HC-Hit Obj: object that was a subsequent high confidence hit and that followed an invalid cue	OBJ	NV	1	0.70423	HC-HIT	 1.1855	1	0.41014
226.00099999999998	1.0	Valid Other Greeble Cue: valid cue where following stimulus was an untested or no response greeble	GRE	V	1	0.5846399999999999	UT	UT	UT	UT
232.00099999999998	0.5	Valid Other Greeble: stimulus that was an untested or no response greeble and that followed a valid cue	GRE	V	1	0.5846399999999999	UT	UT	UT	UT
234.0023	1.0	Valid HC-Hit Cue: valid cue where following object was a subsequent high confidence hit	OBJ	V	1	0.63505	HC-HIT	 3.3455	0	1.5517
236.0023	0.5	Valid HC-Hit Obj: object that was a subsequent high confidence hit and that followed a valid cue	OBJ	V	1	0.63505	HC-HIT	 3.3455	0	1.5517
238.0015	1.0	Valid HC-Hit Cue: valid cue where following object was a subsequent high confidence hit	OBJ	V	1	0.5902	HC-HIT	 1.0677	1	0.53608
242.0015	0.5	Valid HC-Hit Obj: object that was a subsequent high confidence hit and that followed a valid cue	OBJ	V	1	0.5902	HC-HIT	 1.0677	1	0.53608
246.0015	1.0	Valid HC-Hit Cue: valid cue where following object was a subsequent high confidence hit	OBJ	V	1	0.6472399999999999	HC-HIT	 1.2981	0	0.51566
248.0015	0.5	Valid HC-Hit Obj: object that was a subsequent high confidence hit and that followed a valid cue	OBJ	V	1	0.6472399999999999	HC-HIT	 1.2981	0	0.51566
252.0012	1.0	Valid Other Greeble Cue: valid cue where following stimulus was an untested or no response greeble	GRE	V	1	0.69745	UT	UT	UT	UT
254.0012	0.5	Valid Other Greeble: stimulus that was an untested or no response greeble and that followed a valid cue	GRE	V	1	0.69745	UT	UT	UT	UT
256.0011	1.0	Valid HC-Hit Cue: valid cue where following object was a subsequent high confidence hit	OBJ	V	1	0.59535	HC-HIT	 2.4728	0	0.18135
260.0011	0.5	Valid HC-Hit Obj: object that was a subsequent high confidence hit and that followed a valid cue	OBJ	V	1	0.59535	HC-HIT	 2.4728	0	0.18135
262.0017	1.0	Valid HC-Hit Cue: valid cue where following object was a subsequent high confidence hit	OBJ	V	1	0.78761	HC-HIT	 2.5774	0	0.96476
266.0017	0.5	Valid HC-Hit Obj: object that was a subsequent high confidence hit and that followed a valid cue	OBJ	V	1	0.78761	HC-HIT	 2.5774	0	0.96476
268.0015	1.0	Valid Other Greeble Cue: valid cue where following stimulus was an untested or no response greeble	GRE	V	1	0.63839	UT	UT	UT	UT
272.0015	0.5	Valid Other Greeble: stimulus that was an untested or no response greeble and that followed a valid cue	GRE	V	1	0.63839	UT	UT	UT	UT
274.0017	1.0	Invalid HC-Hit Cue: invalid cue where following object was a subsequent high confidence hit	OBJ	NV	1	0.59849	HC-HIT	 1.8507	0	1.5605
280.0017	0.5	Invalid HC-Hit Obj: object that was a subsequent high confidence hit and that followed an invalid cue	OBJ	NV	1	0.59849	HC-HIT	 1.8507	0	1.5605
284.001	1.0	Invalid Other Greeble Cue: invalid cue where following stimulus was an untested or no response greeble	GRE	NV	1	0.5755899999999999	UT	UT	UT	UT
286.001	0.5	Invalid Other Greeble: stimulus that was an untested or no response greeble and that followed a invalid cue	GRE	NV	1	0.5755899999999999	UT	UT	UT	UT
288.0029	1.0	Valid Other Greeble Cue: valid cue where following stimulus was an untested or no response greeble	GRE	V	1	0.87525	UT	UT	UT	UT
290.0029	0.5	Valid Other Greeble: stimulus that was an untested or no response greeble and that followed a valid cue	GRE	V	1	0.87525	UT	UT	UT	UT
292.0017	1.0	Valid HC-Hit Cue: valid cue where following object was a subsequent high confidence hit	OBJ	V	1	0.68607	HC-HIT	 1.7064	1	0.8493
294.0017	0.5	Valid HC-Hit Obj: object that was a subsequent high confidence hit and that followed a valid cue	OBJ	V	1	0.68607	HC-HIT	 1.7064	1	0.8493
296.001	1.0	Valid Miss Cue: valid cue where following object was a subsequent miss	OBJ	V	1	0.5219199999999999	LC-MISS	 1.9422	UT	UT
298.001	0.5	Valid Miss Obj: object that was a subsequent miss and that followed a valid cue	OBJ	V	1	0.5219199999999999	LC-MISS	 1.9422	UT	UT
302.0014	1.0	Valid Miss Cue: valid cue where following object was a subsequent miss	OBJ	V	1	0.55548	HC-MISS	 2.1792	UT	UT
306.0014	0.5	Valid Miss Obj: object that was a subsequent miss and that followed a valid cue	OBJ	V	1	0.55548	HC-MISS	 2.1792	UT	UT
308.0008	1.0	Valid Miss Cue: valid cue where following object was a subsequent miss	OBJ	V	1	0.71406	LC-MISS	 2.7092	UT	UT
314.0008	0.5	Valid Miss Obj: object that was a subsequent miss and that followed a valid cue	OBJ	V	1	0.71406	LC-MISS	 2.7092	UT	UT
316.003	1.0	Invalid Miss Cue: invalid cue where following object was a subsequent miss	OBJ	NV	1	0.6463399999999999	HC-MISS	 2.6213	UT	UT
318.003	0.5	Invalid Miss Obj: object that was a subsequent miss and that followed an invalid cue	OBJ	NV	1	0.6463399999999999	HC-MISS	 2.6213	UT	UT
324.0026	1.0	Valid HC-Hit Cue: valid cue where following object was a subsequent high confidence hit	OBJ	V	1	0.51573	HC-HIT	0.90564	0	0.56499
328.0026	0.5	Valid HC-Hit Obj: object that was a subsequent high confidence hit and that followed a valid cue	OBJ	V	1	0.51573	HC-HIT	0.90564	0	0.56499
330.0017	1.0	Valid Other Obj Cue: valid cue where following stimulus was an untested or no response object	OBJ	V	1	0.78854	UT	UT	UT	UT
334.0017	0.5	Valid Other Obj: stimulus that was an untested or no response object and that followed a valid cue	OBJ	V	1	0.78854	UT	UT	UT	UT
336.0017	1.0	Valid Other Greeble Cue: valid cue where following stimulus was an untested or no response greeble	GRE	V	1	0.60606	UT	UT	UT	UT
340.0017	0.5	Valid Other Greeble: stimulus that was an untested or no response greeble and that followed a valid cue	GRE	V	1	0.60606	UT	UT	UT	UT
342.0008	1.0	Invalid HC-Hit Cue: invalid cue where following object was a subsequent high confidence hit	OBJ	NV	1	0.6249399999999999	HC-HIT	 2.6858	0	2.1708
346.0008	0.5	Invalid HC-Hit Obj: object that was a subsequent high confidence hit and that followed an invalid cue	OBJ	NV	1	0.6249399999999999	HC-HIT	 2.6858	0	2.1708
348.0016	1.0	Valid HC-Hit Cue: valid cue where following object was a subsequent high confidence hit	OBJ	V	1	1.1746	HC-HIT	 1.2855	1	0.45434
350.0016	0.5	Valid HC-Hit Obj: object that was a subsequent high confidence hit and that followed a valid cue	OBJ	V	1	1.1746	HC-HIT	 1.2855	1	0.45434
352.0009	1.0	Valid Miss Cue: valid cue where following object was a subsequent miss	OBJ	V	1	0.78913	HC-MISS	 1.0716	UT	UT
356.0009	0.5	Valid Miss Obj: object that was a subsequent miss and that followed a valid cue	OBJ	V	1	0.78913	HC-MISS	 1.0716	UT	UT
360.0011	1.0	Valid Other Greeble Cue: valid cue where following stimulus was an untested or no response greeble	GRE	V	1	0.61395	UT	UT	UT	UT
364.0011	0.5	Valid Other Greeble: stimulus that was an untested or no response greeble and that followed a valid cue	GRE	V	1	0.61395	UT	UT	UT	UT
