onset	duration	trial_type	Object_Cond	Validity_Cond	Obj_Accuracy	Obj_Acc_RT	Subseq_Recog	Subseq_Recog_RT	Subseq_Source_Mem_Acc	Subseq_Source_Mem_Acc_RT
4.001	1.000	Valid Other Greeble Cue: valid cue where following stimulus was an untested or no response greeble	GRE	V	1	0.463	UT	UT	UT	UT
10.001	0.500	Valid Other Greeble: stimulus that was an untested or no response greeble and that followed a valid cue	GRE	V	1	0.463	UT	UT	UT	UT
12.002	1.000	Valid HC-Hit Cue: valid cue where following object was a subsequent high confidence hit	OBJ	V	1	0.583	HC-HIT	 1.8495	1	0.86786
14.002	0.500	Valid HC-Hit Obj: object that was a subsequent high confidence hit and that followed a valid cue	OBJ	V	1	0.583	HC-HIT	 1.8495	1	0.86786
16.001	1.000	Valid HC-Hit Cue: valid cue where following object was a subsequent high confidence hit	OBJ	V	1	0.470	HC-HIT	 3.7192	0	0.44544
20.001	0.500	Valid HC-Hit Obj: object that was a subsequent high confidence hit and that followed a valid cue	OBJ	V	1	0.470	HC-HIT	 3.7192	0	0.44544
22.001	1.000	Valid Other Greeble Cue: valid cue where following stimulus was an untested or no response greeble	GRE	V	0	0.469	UT	UT	UT	UT
28.001	0.500	Valid Other Greeble: stimulus that was an untested or no response greeble and that followed a valid cue	GRE	V	0	0.469	UT	UT	UT	UT
30.001	1.000	Invalid Miss Cue: invalid cue where following object was a subsequent miss	OBJ	NV	1	0.626	LC-MISS	 2.0223	UT	UT
34.001	0.500	Invalid Miss Obj: object that was a subsequent miss and that followed an invalid cue	OBJ	NV	1	0.626	LC-MISS	 2.0223	UT	UT
36.001	1.000	Valid Other Obj Cue: valid cue where following stimulus was an untested or no response object	OBJ	V	1	0.536	UT	UT	UT	UT
42.001	0.500	Valid Other Obj: stimulus that was an untested or no response object and that followed a valid cue	OBJ	V	1	0.536	UT	UT	UT	UT
46.001	1.000	Valid HC-Hit Cue: valid cue where following object was a subsequent high confidence hit	OBJ	V	1	0.587	HC-HIT	 1.3617	0	0.18445
48.001	0.500	Valid HC-Hit Obj: object that was a subsequent high confidence hit and that followed a valid cue	OBJ	V	1	0.587	HC-HIT	 1.3617	0	0.18445
50.001	1.000	Valid Miss Cue: valid cue where following object was a subsequent miss	OBJ	V	1	0.556	HC-MISS	 3.0877	UT	UT
54.001	0.500	Valid Miss Obj: object that was a subsequent miss and that followed a valid cue	OBJ	V	1	0.556	HC-MISS	 3.0877	UT	UT
56.001	1.000	Invalid Miss Cue: invalid cue where following object was a subsequent miss	OBJ	NV	1	0.777	HC-MISS	 1.2868	UT	UT
58.001	0.500	Invalid Miss Obj: object that was a subsequent miss and that followed an invalid cue	OBJ	NV	1	0.777	HC-MISS	 1.2868	UT	UT
60.001	1.000	Valid HC-Hit Cue: valid cue where following object was a subsequent high confidence hit	OBJ	V	1	0.592	HC-HIT	 1.1851	0	0.20891
66.001	0.500	Valid HC-Hit Obj: object that was a subsequent high confidence hit and that followed a valid cue	OBJ	V	1	0.592	HC-HIT	 1.1851	0	0.20891
68.002	1.000	Valid Other Greeble Cue: valid cue where following stimulus was an untested or no response greeble	GRE	V	1	0.589	UT	UT	UT	UT
70.002	0.500	Valid Other Greeble: stimulus that was an untested or no response greeble and that followed a valid cue	GRE	V	1	0.589	UT	UT	UT	UT
72.001	1.000	Valid HC-Hit Cue: valid cue where following object was a subsequent high confidence hit	OBJ	V	1	0.661	HC-HIT	 1.7371	1	2.5591
76.001	0.500	Valid HC-Hit Obj: object that was a subsequent high confidence hit and that followed a valid cue	OBJ	V	1	0.661	HC-HIT	 1.7371	1	2.5591
78.001	1.000	Valid HC-Hit Cue: valid cue where following object was a subsequent high confidence hit	OBJ	V	1	0.566	HC-HIT	0.90061	0	0.83306
84.001	0.500	Valid HC-Hit Obj: object that was a subsequent high confidence hit and that followed a valid cue	OBJ	V	1	0.566	HC-HIT	0.90061	0	0.83306
86.002	1.000	Valid HC-Hit Cue: valid cue where following object was a subsequent high confidence hit	OBJ	V	1	0.552	HC-HIT	 2.2035	0	1.1083
90.002	0.500	Valid HC-Hit Obj: object that was a subsequent high confidence hit and that followed a valid cue	OBJ	V	1	0.552	HC-HIT	 2.2035	0	1.1083
94.002	1.000	Valid Other Greeble Cue: valid cue where following stimulus was an untested or no response greeble	GRE	V	1	0.593	UT	UT	UT	UT
98.002	0.500	Valid Other Greeble: stimulus that was an untested or no response greeble and that followed a valid cue	GRE	V	1	0.593	UT	UT	UT	UT
100.001	1.000	Invalid Miss Cue: invalid cue where following object was a subsequent miss	OBJ	NV	1	1.003	LC-MISS	 2.9808	UT	UT
102.001	0.500	Invalid Miss Obj: object that was a subsequent miss and that followed an invalid cue	OBJ	NV	1	1.003	LC-MISS	 2.9808	UT	UT
106.002	1.000	Valid HC-Hit Cue: valid cue where following object was a subsequent high confidence hit	OBJ	V	1	0.610	HC-HIT	 1.9409	0	0.83444
110.002	0.500	Valid HC-Hit Obj: object that was a subsequent high confidence hit and that followed a valid cue	OBJ	V	1	0.610	HC-HIT	 1.9409	0	0.83444
114.002	1.000	Valid HC-Hit Cue: valid cue where following object was a subsequent high confidence hit	OBJ	V	1	0.657	HC-HIT	 2.9808	1	2.3629
118.002	0.500	Valid HC-Hit Obj: object that was a subsequent high confidence hit and that followed a valid cue	OBJ	V	1	0.657	HC-HIT	 2.9808	1	2.3629
120.001	1.000	Valid Other Obj Cue: valid cue where following stimulus was an untested or no response object	OBJ	V	1	0.582	UT	UT	UT	UT
122.001	0.500	Valid Other Obj: stimulus that was an untested or no response object and that followed a valid cue	OBJ	V	1	0.582	UT	UT	UT	UT
124.002	1.000	Valid HC-Hit Cue: valid cue where following object was a subsequent high confidence hit	OBJ	V	1	0.545	HC-HIT	 1.0372	1	0.23581
126.002	0.500	Valid HC-Hit Obj: object that was a subsequent high confidence hit and that followed a valid cue	OBJ	V	1	0.545	HC-HIT	 1.0372	1	0.23581
128.001	1.000	Valid HC-Hit Cue: valid cue where following object was a subsequent high confidence hit	OBJ	V	1	0.744	HC-HIT	 3.2277	0	0.95946
134.001	0.500	Valid HC-Hit Obj: object that was a subsequent high confidence hit and that followed a valid cue	OBJ	V	1	0.744	HC-HIT	 3.2277	0	0.95946
136.002	1.000	Valid Other Greeble Cue: valid cue where following stimulus was an untested or no response greeble	GRE	V	1	0.587	UT	UT	UT	UT
140.002	0.500	Valid Other Greeble: stimulus that was an untested or no response greeble and that followed a valid cue	GRE	V	1	0.587	UT	UT	UT	UT
142.001	1.000	Valid HC-Hit Cue: valid cue where following object was a subsequent high confidence hit	OBJ	V	1	0.686	HC-HIT	  2.785	0	0.41831
144.001	0.500	Valid HC-Hit Obj: object that was a subsequent high confidence hit and that followed a valid cue	OBJ	V	1	0.686	HC-HIT	  2.785	0	0.41831
146.002	1.000	Valid Miss Cue: valid cue where following object was a subsequent miss	OBJ	V	1	0.546	HC-MISS	 1.1979	UT	UT
148.002	0.500	Valid Miss Obj: object that was a subsequent miss and that followed a valid cue	OBJ	V	1	0.546	HC-MISS	 1.1979	UT	UT
152.001	1.000	Valid HC-Hit Cue: valid cue where following object was a subsequent high confidence hit	OBJ	V	1	0.531	HC-HIT	 2.2798	0	0.70325
154.001	0.500	Valid HC-Hit Obj: object that was a subsequent high confidence hit and that followed a valid cue	OBJ	V	1	0.531	HC-HIT	 2.2798	0	0.70325
156.001	1.000	Invalid Miss Cue: invalid cue where following object was a subsequent miss	OBJ	NV	1	0.630	HC-MISS	 1.3038	UT	UT
160.001	0.500	Invalid Miss Obj: object that was a subsequent miss and that followed an invalid cue	OBJ	NV	1	0.630	HC-MISS	 1.3038	UT	UT
164.001	1.000	Valid Miss Cue: valid cue where following object was a subsequent miss	OBJ	V	1	0.565	HC-MISS	   1.62	UT	UT
168.001	0.500	Valid Miss Obj: object that was a subsequent miss and that followed a valid cue	OBJ	V	1	0.565	HC-MISS	   1.62	UT	UT
170.001	1.000	Valid LC-Hit Cue: valid cue where following object was a subsequent low confidence hit	OBJ	V	1	0.516	LC-HIT	  2.956	1	0.22052
176.001	0.500	Valid LC-Hit Obj: object that was a subsequent low confidence hit and that followed a valid cue	OBJ	V	1	0.516	LC-HIT	  2.956	1	0.22052
178.001	1.000	Valid Other Greeble Cue: valid cue where following stimulus was an untested or no response greeble	GRE	V	1	0.604	UT	UT	UT	UT
184.001	0.500	Valid Other Greeble: stimulus that was an untested or no response greeble and that followed a valid cue	GRE	V	1	0.604	UT	UT	UT	UT
186.001	1.000	Valid Other Greeble Cue: valid cue where following stimulus was an untested or no response greeble	GRE	V	1	0.640	UT	UT	UT	UT
188.001	0.500	Valid Other Greeble: stimulus that was an untested or no response greeble and that followed a valid cue	GRE	V	1	0.640	UT	UT	UT	UT
190.002	1.000	Valid Other Greeble Cue: valid cue where following stimulus was an untested or no response greeble	GRE	V	1	0.585	UT	UT	UT	UT
196.002	0.500	Valid Other Greeble: stimulus that was an untested or no response greeble and that followed a valid cue	GRE	V	1	0.585	UT	UT	UT	UT
200.002	1.000	Invalid Miss Cue: invalid cue where following object was a subsequent miss	OBJ	NV	1	0.674	HC-MISS	 1.2705	UT	UT
202.002	0.500	Invalid Miss Obj: object that was a subsequent miss and that followed an invalid cue	OBJ	NV	1	0.674	HC-MISS	 1.2705	UT	UT
208.002	1.000	Valid Other Obj Cue: valid cue where following stimulus was an untested or no response object	OBJ	V	1	0.591	UT	UT	UT	UT
212.002	0.500	Valid Other Obj: stimulus that was an untested or no response object and that followed a valid cue	OBJ	V	1	0.591	UT	UT	UT	UT
214.001	1.000	Valid HC-Hit Cue: valid cue where following object was a subsequent high confidence hit	OBJ	V	1	0.606	HC-HIT	 1.1552	1	0.90846
220.001	0.500	Valid HC-Hit Obj: object that was a subsequent high confidence hit and that followed a valid cue	OBJ	V	1	0.606	HC-HIT	 1.1552	1	0.90846
222.001	1.000	Valid HC-Hit Cue: valid cue where following object was a subsequent high confidence hit	OBJ	V	1	0.582	HC-HIT	 1.7087	0	1.7972
228.001	0.500	Valid HC-Hit Obj: object that was a subsequent high confidence hit and that followed a valid cue	OBJ	V	1	0.582	HC-HIT	 1.7087	0	1.7972
232.001	1.000	Valid Miss Cue: valid cue where following object was a subsequent miss	OBJ	V	1	0.507	HC-MISS	 1.1535	UT	UT
234.001	0.500	Valid Miss Obj: object that was a subsequent miss and that followed a valid cue	OBJ	V	1	0.507	HC-MISS	 1.1535	UT	UT
236.001	1.000	Valid Other Greeble Cue: valid cue where following stimulus was an untested or no response greeble	GRE	V	1	0.745	UT	UT	UT	UT
240.001	0.500	Valid Other Greeble: stimulus that was an untested or no response greeble and that followed a valid cue	GRE	V	1	0.745	UT	UT	UT	UT
242.001	1.000	Valid Other Greeble Cue: valid cue where following stimulus was an untested or no response greeble	GRE	V	1	0.610	UT	UT	UT	UT
248.001	0.500	Valid Other Greeble: stimulus that was an untested or no response greeble and that followed a valid cue	GRE	V	1	0.610	UT	UT	UT	UT
250.001	1.000	Invalid HC-Hit Cue: invalid cue where following object was a subsequent high confidence hit	OBJ	NV	1	0.696	HC-HIT	 1.6801	0	0.76985
256.001	0.500	Invalid HC-Hit Obj: object that was a subsequent high confidence hit and that followed an invalid cue	OBJ	NV	1	0.696	HC-HIT	 1.6801	0	0.76985
260.001	1.000	Valid Other Obj Cue: valid cue where following stimulus was an untested or no response object	OBJ	V	1	0.535	UT	UT	UT	UT
266.001	0.500	Valid Other Obj: stimulus that was an untested or no response object and that followed a valid cue	OBJ	V	1	0.535	UT	UT	UT	UT
268.001	1.000	Valid HC-Hit Cue: valid cue where following object was a subsequent high confidence hit	OBJ	V	1	0.656	HC-HIT	 1.3582	0	1.6224
272.001	0.500	Valid HC-Hit Obj: object that was a subsequent high confidence hit and that followed a valid cue	OBJ	V	1	0.656	HC-HIT	 1.3582	0	1.6224
278.002	1.000	Valid Other Greeble Cue: valid cue where following stimulus was an untested or no response greeble	GRE	V	1	0.608	UT	UT	UT	UT
280.002	0.500	Valid Other Greeble: stimulus that was an untested or no response greeble and that followed a valid cue	GRE	V	1	0.608	UT	UT	UT	UT
282.002	1.000	Invalid HC-Hit Cue: invalid cue where following object was a subsequent high confidence hit	OBJ	NV	1	0.609	HC-HIT	 2.2063	1	0.76038
286.002	0.500	Invalid HC-Hit Obj: object that was a subsequent high confidence hit and that followed an invalid cue	OBJ	NV	1	0.609	HC-HIT	 2.2063	1	0.76038
288.002	1.000	Valid HC-Hit Cue: valid cue where following object was a subsequent high confidence hit	OBJ	V	1	0.552	HC-HIT	0.94284	1	0.80842
294.002	0.500	Valid HC-Hit Obj: object that was a subsequent high confidence hit and that followed a valid cue	OBJ	V	1	0.552	HC-HIT	0.94284	1	0.80842
296.002	1.000	Valid Other Greeble Cue: valid cue where following stimulus was an untested or no response greeble	GRE	V	1	0.545	UT	UT	UT	UT
302.002	0.500	Valid Other Greeble: stimulus that was an untested or no response greeble and that followed a valid cue	GRE	V	1	0.545	UT	UT	UT	UT
304.001	1.000	Valid Miss Cue: valid cue where following object was a subsequent miss	OBJ	V	1	0.758	HC-MISS	 2.1551	UT	UT
306.001	0.500	Valid Miss Obj: object that was a subsequent miss and that followed a valid cue	OBJ	V	1	0.758	HC-MISS	 2.1551	UT	UT
310.001	1.000	Valid Other Greeble Cue: valid cue where following stimulus was an untested or no response greeble	GRE	V	1	0.579	UT	UT	UT	UT
314.001	0.500	Valid Other Greeble: stimulus that was an untested or no response greeble and that followed a valid cue	GRE	V	1	0.579	UT	UT	UT	UT
316.001	1.000	Invalid HC-Hit Cue: invalid cue where following object was a subsequent high confidence hit	OBJ	NV	1	0.651	HC-HIT	 1.1269	1	0.59061
322.001	0.500	Invalid HC-Hit Obj: object that was a subsequent high confidence hit and that followed an invalid cue	OBJ	NV	1	0.651	HC-HIT	 1.1269	1	0.59061
324.001	1.000	Valid HC-Hit Cue: valid cue where following object was a subsequent high confidence hit	OBJ	V	1	0.549	HC-HIT	 2.3494	1	0.57001
328.001	0.500	Valid HC-Hit Obj: object that was a subsequent high confidence hit and that followed a valid cue	OBJ	V	1	0.549	HC-HIT	 2.3494	1	0.57001
330.002	1.000	Valid Other Obj Cue: valid cue where following stimulus was an untested or no response object	OBJ	V	1	0.810	UT	UT	UT	UT
332.002	0.500	Valid Other Obj: stimulus that was an untested or no response object and that followed a valid cue	OBJ	V	1	0.810	UT	UT	UT	UT
334.002	1.000	Valid Other Greeble Cue: valid cue where following stimulus was an untested or no response greeble	GRE	V	1	0.565	UT	UT	UT	UT
336.002	0.500	Valid Other Greeble: stimulus that was an untested or no response greeble and that followed a valid cue	GRE	V	1	0.565	UT	UT	UT	UT
338.001	1.000	Valid HC-Hit Cue: valid cue where following object was a subsequent high confidence hit	OBJ	V	1	0.615	HC-HIT	 1.9876	1	1.4464
342.001	0.500	Valid HC-Hit Obj: object that was a subsequent high confidence hit and that followed a valid cue	OBJ	V	1	0.615	HC-HIT	 1.9876	1	1.4464
344.001	1.000	Invalid Other Greeble Cue: invalid cue where following stimulus was an untested or no response greeble	GRE	NV	1	0.657	UT	UT	UT	UT
346.001	0.500	Invalid Other Greeble: stimulus that was an untested or no response greeble and that followed a invalid cue	GRE	NV	1	0.657	UT	UT	UT	UT
348.001	1.000	Valid Miss Cue: valid cue where following object was a subsequent miss	OBJ	V	1	0.604	HC-MISS	0.94927	UT	UT
352.001	0.500	Valid Miss Obj: object that was a subsequent miss and that followed a valid cue	OBJ	V	1	0.604	HC-MISS	0.94927	UT	UT
354.001	1.000	Valid Miss Cue: valid cue where following object was a subsequent miss	OBJ	V	1	0.696	HC-MISS	 1.4484	UT	UT
356.001	0.500	Valid Miss Obj: object that was a subsequent miss and that followed a valid cue	OBJ	V	1	0.696	HC-MISS	 1.4484	UT	UT
358.001	1.000	Invalid Other Greeble Cue: invalid cue where following stimulus was an untested or no response greeble	GRE	NV	1	0.608	UT	UT	UT	UT
364.001	0.500	Invalid Other Greeble: stimulus that was an untested or no response greeble and that followed a invalid cue	GRE	NV	1	0.608	UT	UT	UT	UT
