onset	duration	trial_type	Object_Cond	Validity_Cond	Obj_Accuracy	Obj_Acc_RT	Subseq_Recog	Subseq_Recog_RT	Subseq_Source_Mem_Acc	Subseq_Source_Mem_Acc_RT
4.001	1.000	Valid Other Obj Cue: valid cue where following stimulus was an untested or no response object	OBJ	V	1	0.545	UT	UT	UT	UT
10.001	0.500	Valid Other Obj: stimulus that was an untested or no response object and that followed a valid cue	OBJ	V	1	0.545	UT	UT	UT	UT
12.001	1.000	Valid Miss Cue: valid cue where following object was a subsequent miss	OBJ	V	1	0.667	HC-MISS	 1.4659	UT	UT
16.001	0.500	Valid Miss Obj: object that was a subsequent miss and that followed a valid cue	OBJ	V	1	0.667	HC-MISS	 1.4659	UT	UT
18.001	1.000	Valid Other Greeble Cue: valid cue where following stimulus was an untested or no response greeble	GRE	V	1	0.555	UT	UT	UT	UT
24.001	0.500	Valid Other Greeble: stimulus that was an untested or no response greeble and that followed a valid cue	GRE	V	1	0.555	UT	UT	UT	UT
28.001	1.000	Invalid LC-Hit Cue: invalid cue where following object was a subsequent low confidence hit	OBJ	NV	1	0.666	LC-HIT	 2.2631	0	0.10296
32.001	0.500	Invalid LC-Hit Obj: object that was a subsequent low confidence hit and that followed an invalid cue	OBJ	NV	1	0.666	LC-HIT	 2.2631	0	0.10296
36.001	1.000	Valid Other Obj Cue: valid cue where following stimulus was an untested or no response object	OBJ	V	1	0.576	UT	UT	UT	UT
42.001	0.500	Valid Other Obj: stimulus that was an untested or no response object and that followed a valid cue	OBJ	V	1	0.576	UT	UT	UT	UT
44.001	1.000	Valid Other Greeble Cue: valid cue where following stimulus was an untested or no response greeble	GRE	V	1	0.604	UT	UT	UT	UT
46.001	0.500	Valid Other Greeble: stimulus that was an untested or no response greeble and that followed a valid cue	GRE	V	1	0.604	UT	UT	UT	UT
48.001	1.000	Valid Other Greeble Cue: valid cue where following stimulus was an untested or no response greeble	GRE	V	1	0.565	UT	UT	UT	UT
52.001	0.500	Valid Other Greeble: stimulus that was an untested or no response greeble and that followed a valid cue	GRE	V	1	0.565	UT	UT	UT	UT
54.001	1.000	Valid HC-Hit Cue: valid cue where following object was a subsequent high confidence hit	OBJ	V	0	0.742	HC-HIT	0.95069	1	1.6478
60.001	0.500	Valid HC-Hit Obj: object that was a subsequent high confidence hit and that followed a valid cue	OBJ	V	0	0.742	HC-HIT	0.95069	1	1.6478
62.002	n/a	n/a	OBJ	NV	1	0.697	NR	NR	UT	UT
64.002	n/a	n/a	OBJ	NV	1	0.697	NR	NR	UT	UT
66.001	1.000	Valid Other Greeble Cue: valid cue where following stimulus was an untested or no response greeble	GRE	V	1	0.561	UT	UT	UT	UT
72.001	0.500	Valid Other Greeble: stimulus that was an untested or no response greeble and that followed a valid cue	GRE	V	1	0.561	UT	UT	UT	UT
74.001	1.000	Valid Other Greeble Cue: valid cue where following stimulus was an untested or no response greeble	GRE	V	1	0.628	UT	UT	UT	UT
76.001	0.500	Valid Other Greeble: stimulus that was an untested or no response greeble and that followed a valid cue	GRE	V	1	0.628	UT	UT	UT	UT
78.001	1.000	Valid HC-Hit Cue: valid cue where following object was a subsequent high confidence hit	OBJ	V	1	0.574	HC-HIT	 1.0021	1	2.4574
82.001	0.500	Valid HC-Hit Obj: object that was a subsequent high confidence hit and that followed a valid cue	OBJ	V	1	0.574	HC-HIT	 1.0021	1	2.4574
84.002	1.000	Valid HC-Hit Cue: valid cue where following object was a subsequent high confidence hit	OBJ	V	1	0.737	HC-HIT	 2.8905	0	0.74109
86.002	0.500	Valid HC-Hit Obj: object that was a subsequent high confidence hit and that followed a valid cue	OBJ	V	1	0.737	HC-HIT	 2.8905	0	0.74109
88.001	1.000	Valid Miss Cue: valid cue where following object was a subsequent miss	OBJ	V	1	0.870	HC-MISS	 2.3381	UT	UT
90.001	0.500	Valid Miss Obj: object that was a subsequent miss and that followed a valid cue	OBJ	V	1	0.870	HC-MISS	 2.3381	UT	UT
92.002	1.000	Invalid LC-Hit Cue: invalid cue where following object was a subsequent low confidence hit	OBJ	NV	1	0.727	LC-HIT	 3.5508	0	0.74863
96.002	0.500	Invalid LC-Hit Obj: object that was a subsequent low confidence hit and that followed an invalid cue	OBJ	NV	1	0.727	LC-HIT	 3.5508	0	0.74863
98.001	1.000	Valid HC-Hit Cue: valid cue where following object was a subsequent high confidence hit	OBJ	V	1	0.567	HC-HIT	 1.7892	0	1.0185
104.001	0.500	Valid HC-Hit Obj: object that was a subsequent high confidence hit and that followed a valid cue	OBJ	V	1	0.567	HC-HIT	 1.7892	0	1.0185
106.001	1.000	Valid HC-Hit Cue: valid cue where following object was a subsequent high confidence hit	OBJ	V	1	0.569	HC-HIT	 2.0383	1	3.1287
110.001	0.500	Valid HC-Hit Obj: object that was a subsequent high confidence hit and that followed a valid cue	OBJ	V	1	0.569	HC-HIT	 2.0383	1	3.1287
112.002	1.000	Valid HC-Hit Cue: valid cue where following object was a subsequent high confidence hit	OBJ	V	1	0.580	HC-HIT	 0.9399	0	0.82987
114.002	0.500	Valid HC-Hit Obj: object that was a subsequent high confidence hit and that followed a valid cue	OBJ	V	1	0.580	HC-HIT	 0.9399	0	0.82987
116.001	1.000	Valid Other Greeble Cue: valid cue where following stimulus was an untested or no response greeble	GRE	V	1	0.547	UT	UT	UT	UT
122.001	0.500	Valid Other Greeble: stimulus that was an untested or no response greeble and that followed a valid cue	GRE	V	1	0.547	UT	UT	UT	UT
126.002	1.000	Valid Miss Cue: valid cue where following object was a subsequent miss	OBJ	V	1	0.601	HC-MISS	 1.3331	UT	UT
132.002	0.500	Valid Miss Obj: object that was a subsequent miss and that followed a valid cue	OBJ	V	1	0.601	HC-MISS	 1.3331	UT	UT
134.001	1.000	Valid Other Greeble Cue: valid cue where following stimulus was an untested or no response greeble	GRE	V	1	0.640	UT	UT	UT	UT
140.001	0.500	Valid Other Greeble: stimulus that was an untested or no response greeble and that followed a valid cue	GRE	V	1	0.640	UT	UT	UT	UT
142.001	1.000	Valid HC-Hit Cue: valid cue where following object was a subsequent high confidence hit	OBJ	V	1	0.596	HC-HIT	 1.9939	1	0.18984
144.001	0.500	Valid HC-Hit Obj: object that was a subsequent high confidence hit and that followed a valid cue	OBJ	V	1	0.596	HC-HIT	 1.9939	1	0.18984
146.002	1.000	Invalid Other Greeble Cue: invalid cue where following stimulus was an untested or no response greeble	GRE	NV	1	0.584	UT	UT	UT	UT
148.002	0.500	Invalid Other Greeble: stimulus that was an untested or no response greeble and that followed a invalid cue	GRE	NV	1	0.584	UT	UT	UT	UT
150.001	1.000	Valid Miss Cue: valid cue where following object was a subsequent miss	OBJ	V	1	0.608	HC-MISS	 1.8998	UT	UT
156.001	0.500	Valid Miss Obj: object that was a subsequent miss and that followed a valid cue	OBJ	V	1	0.608	HC-MISS	 1.8998	UT	UT
160.002	1.000	Valid HC-Hit Cue: valid cue where following object was a subsequent high confidence hit	OBJ	V	1	0.542	HC-HIT	 2.5404	0	0.22347
166.002	0.500	Valid HC-Hit Obj: object that was a subsequent high confidence hit and that followed a valid cue	OBJ	V	1	0.542	HC-HIT	 2.5404	0	0.22347
168.001	1.000	Invalid HC-Hit Cue: invalid cue where following object was a subsequent high confidence hit	OBJ	NV	1	0.794	HC-HIT	 2.8134	0	1.6764
170.001	0.500	Invalid HC-Hit Obj: object that was a subsequent high confidence hit and that followed an invalid cue	OBJ	NV	1	0.794	HC-HIT	 2.8134	0	1.6764
174.001	1.000	Valid Other Greeble Cue: valid cue where following stimulus was an untested or no response greeble	GRE	V	1	0.623	UT	UT	UT	UT
180.001	0.500	Valid Other Greeble: stimulus that was an untested or no response greeble and that followed a valid cue	GRE	V	1	0.623	UT	UT	UT	UT
182.001	1.000	Valid HC-Hit Cue: valid cue where following object was a subsequent high confidence hit	OBJ	V	1	0.566	HC-HIT	 2.0146	1	0.86366
188.001	0.500	Valid HC-Hit Obj: object that was a subsequent high confidence hit and that followed a valid cue	OBJ	V	1	0.566	HC-HIT	 2.0146	1	0.86366
190.001	1.000	Valid Other Obj Cue: valid cue where following stimulus was an untested or no response object	OBJ	V	1	0.525	UT	UT	UT	UT
196.001	0.500	Valid Other Obj: stimulus that was an untested or no response object and that followed a valid cue	OBJ	V	1	0.525	UT	UT	UT	UT
198.002	1.000	Valid Other Obj Cue: valid cue where following stimulus was an untested or no response object	OBJ	V	1	0.666	UT	UT	UT	UT
200.002	0.500	Valid Other Obj: stimulus that was an untested or no response object and that followed a valid cue	OBJ	V	1	0.666	UT	UT	UT	UT
202.001	1.000	Valid HC-Hit Cue: valid cue where following object was a subsequent high confidence hit	OBJ	V	1	0.517	HC-HIT	0.98512	0	0.1926
206.001	0.500	Valid HC-Hit Obj: object that was a subsequent high confidence hit and that followed a valid cue	OBJ	V	1	0.517	HC-HIT	0.98512	0	0.1926
208.001	1.000	Valid LC-Hit Cue: valid cue where following object was a subsequent low confidence hit	OBJ	V	1	0.605	LC-HIT	 2.6201	1	2.6195
212.001	0.500	Valid LC-Hit Obj: object that was a subsequent low confidence hit and that followed a valid cue	OBJ	V	1	0.605	LC-HIT	 2.6201	1	2.6195
218.002	1.000	Invalid HC-Hit Cue: invalid cue where following object was a subsequent high confidence hit	OBJ	NV	1	0.704	HC-HIT	 1.1855	1	0.41014
224.002	0.500	Invalid HC-Hit Obj: object that was a subsequent high confidence hit and that followed an invalid cue	OBJ	NV	1	0.704	HC-HIT	 1.1855	1	0.41014
226.001	1.000	Valid Other Greeble Cue: valid cue where following stimulus was an untested or no response greeble	GRE	V	1	0.585	UT	UT	UT	UT
232.001	0.500	Valid Other Greeble: stimulus that was an untested or no response greeble and that followed a valid cue	GRE	V	1	0.585	UT	UT	UT	UT
234.002	1.000	Valid HC-Hit Cue: valid cue where following object was a subsequent high confidence hit	OBJ	V	1	0.635	HC-HIT	 3.3455	0	1.5517
236.002	0.500	Valid HC-Hit Obj: object that was a subsequent high confidence hit and that followed a valid cue	OBJ	V	1	0.635	HC-HIT	 3.3455	0	1.5517
238.001	1.000	Valid HC-Hit Cue: valid cue where following object was a subsequent high confidence hit	OBJ	V	1	0.590	HC-HIT	 1.0677	1	0.53608
242.001	0.500	Valid HC-Hit Obj: object that was a subsequent high confidence hit and that followed a valid cue	OBJ	V	1	0.590	HC-HIT	 1.0677	1	0.53608
246.001	1.000	Valid HC-Hit Cue: valid cue where following object was a subsequent high confidence hit	OBJ	V	1	0.647	HC-HIT	 1.2981	0	0.51566
248.001	0.500	Valid HC-Hit Obj: object that was a subsequent high confidence hit and that followed a valid cue	OBJ	V	1	0.647	HC-HIT	 1.2981	0	0.51566
252.001	1.000	Valid Other Greeble Cue: valid cue where following stimulus was an untested or no response greeble	GRE	V	1	0.697	UT	UT	UT	UT
254.001	0.500	Valid Other Greeble: stimulus that was an untested or no response greeble and that followed a valid cue	GRE	V	1	0.697	UT	UT	UT	UT
256.001	1.000	Valid HC-Hit Cue: valid cue where following object was a subsequent high confidence hit	OBJ	V	1	0.595	HC-HIT	 2.4728	0	0.18135
260.001	0.500	Valid HC-Hit Obj: object that was a subsequent high confidence hit and that followed a valid cue	OBJ	V	1	0.595	HC-HIT	 2.4728	0	0.18135
262.002	1.000	Valid HC-Hit Cue: valid cue where following object was a subsequent high confidence hit	OBJ	V	1	0.788	HC-HIT	 2.5774	0	0.96476
266.002	0.500	Valid HC-Hit Obj: object that was a subsequent high confidence hit and that followed a valid cue	OBJ	V	1	0.788	HC-HIT	 2.5774	0	0.96476
268.002	1.000	Valid Other Greeble Cue: valid cue where following stimulus was an untested or no response greeble	GRE	V	1	0.638	UT	UT	UT	UT
272.002	0.500	Valid Other Greeble: stimulus that was an untested or no response greeble and that followed a valid cue	GRE	V	1	0.638	UT	UT	UT	UT
274.002	1.000	Invalid HC-Hit Cue: invalid cue where following object was a subsequent high confidence hit	OBJ	NV	1	0.598	HC-HIT	 1.8507	0	1.5605
280.002	0.500	Invalid HC-Hit Obj: object that was a subsequent high confidence hit and that followed an invalid cue	OBJ	NV	1	0.598	HC-HIT	 1.8507	0	1.5605
284.001	1.000	Invalid Other Greeble Cue: invalid cue where following stimulus was an untested or no response greeble	GRE	NV	1	0.576	UT	UT	UT	UT
286.001	0.500	Invalid Other Greeble: stimulus that was an untested or no response greeble and that followed a invalid cue	GRE	NV	1	0.576	UT	UT	UT	UT
288.003	1.000	Valid Other Greeble Cue: valid cue where following stimulus was an untested or no response greeble	GRE	V	1	0.875	UT	UT	UT	UT
290.003	0.500	Valid Other Greeble: stimulus that was an untested or no response greeble and that followed a valid cue	GRE	V	1	0.875	UT	UT	UT	UT
292.002	1.000	Valid HC-Hit Cue: valid cue where following object was a subsequent high confidence hit	OBJ	V	1	0.686	HC-HIT	 1.7064	1	0.8493
294.002	0.500	Valid HC-Hit Obj: object that was a subsequent high confidence hit and that followed a valid cue	OBJ	V	1	0.686	HC-HIT	 1.7064	1	0.8493
296.001	1.000	Valid Miss Cue: valid cue where following object was a subsequent miss	OBJ	V	1	0.522	LC-MISS	 1.9422	UT	UT
298.001	0.500	Valid Miss Obj: object that was a subsequent miss and that followed a valid cue	OBJ	V	1	0.522	LC-MISS	 1.9422	UT	UT
302.001	1.000	Valid Miss Cue: valid cue where following object was a subsequent miss	OBJ	V	1	0.555	HC-MISS	 2.1792	UT	UT
306.001	0.500	Valid Miss Obj: object that was a subsequent miss and that followed a valid cue	OBJ	V	1	0.555	HC-MISS	 2.1792	UT	UT
308.001	1.000	Valid Miss Cue: valid cue where following object was a subsequent miss	OBJ	V	1	0.714	LC-MISS	 2.7092	UT	UT
314.001	0.500	Valid Miss Obj: object that was a subsequent miss and that followed a valid cue	OBJ	V	1	0.714	LC-MISS	 2.7092	UT	UT
316.003	1.000	Invalid Miss Cue: invalid cue where following object was a subsequent miss	OBJ	NV	1	0.646	HC-MISS	 2.6213	UT	UT
318.003	0.500	Invalid Miss Obj: object that was a subsequent miss and that followed an invalid cue	OBJ	NV	1	0.646	HC-MISS	 2.6213	UT	UT
324.003	1.000	Valid HC-Hit Cue: valid cue where following object was a subsequent high confidence hit	OBJ	V	1	0.516	HC-HIT	0.90564	0	0.56499
328.003	0.500	Valid HC-Hit Obj: object that was a subsequent high confidence hit and that followed a valid cue	OBJ	V	1	0.516	HC-HIT	0.90564	0	0.56499
330.002	1.000	Valid Other Obj Cue: valid cue where following stimulus was an untested or no response object	OBJ	V	1	0.789	UT	UT	UT	UT
334.002	0.500	Valid Other Obj: stimulus that was an untested or no response object and that followed a valid cue	OBJ	V	1	0.789	UT	UT	UT	UT
336.002	1.000	Valid Other Greeble Cue: valid cue where following stimulus was an untested or no response greeble	GRE	V	1	0.606	UT	UT	UT	UT
340.002	0.500	Valid Other Greeble: stimulus that was an untested or no response greeble and that followed a valid cue	GRE	V	1	0.606	UT	UT	UT	UT
342.001	1.000	Invalid HC-Hit Cue: invalid cue where following object was a subsequent high confidence hit	OBJ	NV	1	0.625	HC-HIT	 2.6858	0	2.1708
346.001	0.500	Invalid HC-Hit Obj: object that was a subsequent high confidence hit and that followed an invalid cue	OBJ	NV	1	0.625	HC-HIT	 2.6858	0	2.1708
348.002	1.000	Valid HC-Hit Cue: valid cue where following object was a subsequent high confidence hit	OBJ	V	1	1.175	HC-HIT	 1.2855	1	0.45434
350.002	0.500	Valid HC-Hit Obj: object that was a subsequent high confidence hit and that followed a valid cue	OBJ	V	1	1.175	HC-HIT	 1.2855	1	0.45434
352.001	1.000	Valid Miss Cue: valid cue where following object was a subsequent miss	OBJ	V	1	0.789	HC-MISS	 1.0716	UT	UT
356.001	0.500	Valid Miss Obj: object that was a subsequent miss and that followed a valid cue	OBJ	V	1	0.789	HC-MISS	 1.0716	UT	UT
360.001	1.000	Valid Other Greeble Cue: valid cue where following stimulus was an untested or no response greeble	GRE	V	1	0.614	UT	UT	UT	UT
364.001	0.500	Valid Other Greeble: stimulus that was an untested or no response greeble and that followed a valid cue	GRE	V	1	0.614	UT	UT	UT	UT
