onset	duration	trial_type	Object_Cond	Validity_Cond	Obj_Accuracy	Obj_Acc_RT	Subseq_Recog	Subseq_Recog_RT	Subseq_Source_Mem_Acc	Subseq_Source_Mem_Acc_RT
4.000	1.000	Valid Other Obj Cue: valid cue where following stimulus was an untested or no response object	OBJ	V	1	0.49487	UT	UT	UT	UT
10.000	0.500	Valid Other Obj: stimulus that was an untested or no response object and that followed a valid cue	OBJ	V	1	0.49487	UT	UT	UT	UT
12.001	1.000	Valid HC-Hit Cue: valid cue where following object was a subsequent high confidence hit	OBJ	V	1	0.63733	HC-HIT	 0.9564	1	0.57313
14.001	0.500	Valid HC-Hit Obj: object that was a subsequent high confidence hit and that followed a valid cue	OBJ	V	1	0.63733	HC-HIT	 0.9564	1	0.57313
16.002	1.000	Valid Other Obj Cue: valid cue where following stimulus was an untested or no response object	OBJ	V	1	0.55945	UT	UT	UT	UT
20.002	0.500	Valid Other Obj: stimulus that was an untested or no response object and that followed a valid cue	OBJ	V	1	0.55945	UT	UT	UT	UT
22.002	1.000	Invalid HC-Hit Cue: invalid cue where following object was a subsequent high confidence hit	OBJ	NV	1	0.71524	HC-HIT	 1.0426	0	0.49475
24.002	0.500	Invalid HC-Hit Obj: object that was a subsequent high confidence hit and that followed an invalid cue	OBJ	NV	1	0.71524	HC-HIT	 1.0426	0	0.49475
30.002	1.000	Valid HC-Hit Cue: valid cue where following object was a subsequent high confidence hit	OBJ	V	1	0.56082	HC-HIT	 1.3354	0	3.1058
34.002	0.500	Valid HC-Hit Obj: object that was a subsequent high confidence hit and that followed a valid cue	OBJ	V	1	0.56082	HC-HIT	 1.3354	0	3.1058
36.002	1.000	Valid Miss Cue: valid cue where following object was a subsequent miss	OBJ	V	1	0.52977	LC-MISS	 2.8004	UT	UT
42.002	0.500	Valid Miss Obj: object that was a subsequent miss and that followed a valid cue	OBJ	V	1	0.52977	LC-MISS	 2.8004	UT	UT
46.002	1.000	Valid Other Greeble Cue: valid cue where following stimulus was an untested or no response greeble	GRE	V	1	0.63492	UT	UT	UT	UT
48.002	0.500	Valid Other Greeble: stimulus that was an untested or no response greeble and that followed a valid cue	GRE	V	1	0.63492	UT	UT	UT	UT
50.001	1.000	Valid Miss Cue: valid cue where following object was a subsequent miss	OBJ	V	1	0.57782	HC-MISS	  1.611	UT	UT
56.001	0.500	Valid Miss Obj: object that was a subsequent miss and that followed a valid cue	OBJ	V	1	0.57782	HC-MISS	  1.611	UT	UT
58.001	1.000	Valid Other Greeble Cue: valid cue where following stimulus was an untested or no response greeble	GRE	V	1	0.60144	UT	UT	UT	UT
64.001	0.500	Valid Other Greeble: stimulus that was an untested or no response greeble and that followed a valid cue	GRE	V	1	0.60144	UT	UT	UT	UT
66.001	1.000	Valid Other Greeble Cue: valid cue where following stimulus was an untested or no response greeble	GRE	V	1	0.56923	UT	UT	UT	UT
72.001	0.500	Valid Other Greeble: stimulus that was an untested or no response greeble and that followed a valid cue	GRE	V	1	0.56923	UT	UT	UT	UT
76.001	1.000	Invalid HC-Hit Cue: invalid cue where following object was a subsequent high confidence hit	OBJ	NV	1	0.66512	HC-HIT	 1.5074	0	3.74
80.001	0.500	Invalid HC-Hit Obj: object that was a subsequent high confidence hit and that followed an invalid cue	OBJ	NV	1	0.66512	HC-HIT	 1.5074	0	3.74
82.002	1.000	Valid HC-Hit Cue: valid cue where following object was a subsequent high confidence hit	OBJ	V	1	0.59303	HC-HIT	  1.632	0	0
88.002	0.500	Valid HC-Hit Obj: object that was a subsequent high confidence hit and that followed a valid cue	OBJ	V	1	0.59303	HC-HIT	  1.632	0	0
90.001	1.000	Valid HC-Hit Cue: valid cue where following object was a subsequent high confidence hit	OBJ	V	1	0.62762	HC-HIT	 1.2822	0	0.61984
92.001	0.500	Valid HC-Hit Obj: object that was a subsequent high confidence hit and that followed a valid cue	OBJ	V	1	0.62762	HC-HIT	 1.2822	0	0.61984
94.001	1.000	Valid HC-Hit Cue: valid cue where following object was a subsequent high confidence hit	OBJ	V	1	 0.5237	HC-HIT	 1.2753	0	0.86896
100.001	0.500	Valid HC-Hit Obj: object that was a subsequent high confidence hit and that followed a valid cue	OBJ	V	1	 0.5237	HC-HIT	 1.2753	0	0.86896
102.001	1.000	Valid Other Obj Cue: valid cue where following stimulus was an untested or no response object	OBJ	V	1	0.47187	UT	UT	UT	UT
108.001	0.500	Valid Other Obj: stimulus that was an untested or no response object and that followed a valid cue	OBJ	V	1	0.47187	UT	UT	UT	UT
110.002	1.000	Valid HC-Hit Cue: valid cue where following object was a subsequent high confidence hit	OBJ	V	NR	NR	HC-HIT	0.92409	0	0.70364
114.002	0.500	Valid HC-Hit Obj: object that was a subsequent high confidence hit and that followed a valid cue	OBJ	V	NR	NR	HC-HIT	0.92409	0	0.70364
116.001	1.000	Valid Other Greeble Cue: valid cue where following stimulus was an untested or no response greeble	GRE	V	1	0.63604	UT	UT	UT	UT
122.001	0.500	Valid Other Greeble: stimulus that was an untested or no response greeble and that followed a valid cue	GRE	V	1	0.63604	UT	UT	UT	UT
124.002	1.000	Valid HC-Hit Cue: valid cue where following object was a subsequent high confidence hit	OBJ	V	1	0.58153	HC-HIT	  1.499	1	1.9085
128.002	0.500	Valid HC-Hit Obj: object that was a subsequent high confidence hit and that followed a valid cue	OBJ	V	1	0.58153	HC-HIT	  1.499	1	1.9085
130.001	1.000	Invalid Miss Cue: invalid cue where following object was a subsequent miss	OBJ	NV	1	0.67056	HC-MISS	 1.3619	UT	UT
136.001	0.500	Invalid Miss Obj: object that was a subsequent miss and that followed an invalid cue	OBJ	NV	1	0.67056	HC-MISS	 1.3619	UT	UT
140.001	1.000	Valid HC-Hit Cue: valid cue where following object was a subsequent high confidence hit	OBJ	V	1	0.80747	HC-HIT	 3.2115	1	1.3046
142.001	0.500	Valid HC-Hit Obj: object that was a subsequent high confidence hit and that followed a valid cue	OBJ	V	1	0.80747	HC-HIT	 3.2115	1	1.3046
144.001	1.000	Valid Miss Cue: valid cue where following object was a subsequent miss	OBJ	V	1	0.53953	HC-MISS	  3.916	UT	UT
146.001	0.500	Valid Miss Obj: object that was a subsequent miss and that followed a valid cue	OBJ	V	1	0.53953	HC-MISS	  3.916	UT	UT
148.001	1.000	Valid Other Greeble Cue: valid cue where following stimulus was an untested or no response greeble	GRE	V	1	0.61136	UT	UT	UT	UT
154.001	0.500	Valid Other Greeble: stimulus that was an untested or no response greeble and that followed a valid cue	GRE	V	1	0.61136	UT	UT	UT	UT
156.001	1.000	Valid HC-Hit Cue: valid cue where following object was a subsequent high confidence hit	OBJ	V	1	0.59611	HC-HIT	 2.6066	0	1.2771
160.001	0.500	Valid HC-Hit Obj: object that was a subsequent high confidence hit and that followed a valid cue	OBJ	V	1	0.59611	HC-HIT	 2.6066	0	1.2771
164.001	1.000	Valid Other Obj Cue: valid cue where following stimulus was an untested or no response object	OBJ	V	1	0.66268	UT	UT	UT	UT
166.001	0.500	Valid Other Obj: stimulus that was an untested or no response object and that followed a valid cue	OBJ	V	1	0.66268	UT	UT	UT	UT
168.002	1.000	Valid Other Greeble Cue: valid cue where following stimulus was an untested or no response greeble	GRE	V	1	0.61855	UT	UT	UT	UT
170.002	0.500	Valid Other Greeble: stimulus that was an untested or no response greeble and that followed a valid cue	GRE	V	1	0.61855	UT	UT	UT	UT
172.001	1.000	Valid Other Greeble Cue: valid cue where following stimulus was an untested or no response greeble	GRE	V	1	0.56056	UT	UT	UT	UT
178.001	0.500	Valid Other Greeble: stimulus that was an untested or no response greeble and that followed a valid cue	GRE	V	1	0.56056	UT	UT	UT	UT
180.001	1.000	Invalid HC-Hit Cue: invalid cue where following object was a subsequent high confidence hit	OBJ	NV	1	0.72075	HC-HIT	 1.3444	0	1.4327
186.001	0.500	Invalid HC-Hit Obj: object that was a subsequent high confidence hit and that followed an invalid cue	OBJ	NV	1	0.72075	HC-HIT	 1.3444	0	1.4327
188.001	1.000	Valid HC-Hit Cue: valid cue where following object was a subsequent high confidence hit	OBJ	V	1	0.61219	HC-HIT	 1.2464	0	0.46573
190.001	0.500	Valid HC-Hit Obj: object that was a subsequent high confidence hit and that followed a valid cue	OBJ	V	1	0.61219	HC-HIT	 1.2464	0	0.46573
192.003	1.000	Valid HC-Hit Cue: valid cue where following object was a subsequent high confidence hit	OBJ	V	1	0.52899	HC-HIT	 2.5678	0	1.7976
194.003	0.500	Valid HC-Hit Obj: object that was a subsequent high confidence hit and that followed a valid cue	OBJ	V	1	0.52899	HC-HIT	 2.5678	0	1.7976
198.001	1.000	Valid Other Greeble Cue: valid cue where following stimulus was an untested or no response greeble	GRE	V	1	0.55284	UT	UT	UT	UT
202.001	0.500	Valid Other Greeble: stimulus that was an untested or no response greeble and that followed a valid cue	GRE	V	1	0.55284	UT	UT	UT	UT
204.001	1.000	Valid Miss Cue: valid cue where following object was a subsequent miss	OBJ	V	1	0.71421	HC-MISS	 1.3901	UT	UT
208.001	0.500	Valid Miss Obj: object that was a subsequent miss and that followed a valid cue	OBJ	V	1	0.71421	HC-MISS	 1.3901	UT	UT
212.001	1.000	Valid Miss Cue: valid cue where following object was a subsequent miss	OBJ	V	1	0.66608	HC-MISS	0.87628	UT	UT
216.001	0.500	Valid Miss Obj: object that was a subsequent miss and that followed a valid cue	OBJ	V	1	0.66608	HC-MISS	0.87628	UT	UT
218.001	1.000	Valid Other Greeble Cue: valid cue where following stimulus was an untested or no response greeble	GRE	V	1	0.57955	UT	UT	UT	UT
222.001	0.500	Valid Other Greeble: stimulus that was an untested or no response greeble and that followed a valid cue	GRE	V	1	0.57955	UT	UT	UT	UT
224.002	1.000	Invalid Other Greeble Cue: invalid cue where following stimulus was an untested or no response greeble	GRE	NV	1	0.58228	UT	UT	UT	UT
228.002	0.500	Invalid Other Greeble: stimulus that was an untested or no response greeble and that followed a invalid cue	GRE	NV	1	0.58228	UT	UT	UT	UT
230.002	1.000	Valid HC-Hit Cue: valid cue where following object was a subsequent high confidence hit	OBJ	V	1	0.65562	HC-HIT	 3.3056	0	2.4625
234.002	0.500	Valid HC-Hit Obj: object that was a subsequent high confidence hit and that followed a valid cue	OBJ	V	1	0.65562	HC-HIT	 3.3056	0	2.4625
240.001	1.000	Valid Miss Cue: valid cue where following object was a subsequent miss	OBJ	V	1	0.62103	HC-MISS	 1.2223	UT	UT
244.001	0.500	Valid Miss Obj: object that was a subsequent miss and that followed a valid cue	OBJ	V	1	0.62103	HC-MISS	 1.2223	UT	UT
246.001	1.000	Invalid HC-Hit Cue: invalid cue where following object was a subsequent high confidence hit	OBJ	NV	1	0.61357	HC-HIT	 2.2408	0	0.62298
250.001	0.500	Invalid HC-Hit Obj: object that was a subsequent high confidence hit and that followed an invalid cue	OBJ	NV	1	0.61357	HC-HIT	 2.2408	0	0.62298
252.001	1.000	Valid HC-Hit Cue: valid cue where following object was a subsequent high confidence hit	OBJ	V	1	0.60702	HC-HIT	 1.3584	1	2.1956
256.001	0.500	Valid HC-Hit Obj: object that was a subsequent high confidence hit and that followed a valid cue	OBJ	V	1	0.60702	HC-HIT	 1.3584	1	2.1956
258.002	1.000	Valid Other Greeble Cue: valid cue where following stimulus was an untested or no response greeble	GRE	V	1	0.58339	UT	UT	UT	UT
264.002	0.500	Valid Other Greeble: stimulus that was an untested or no response greeble and that followed a valid cue	GRE	V	1	0.58339	UT	UT	UT	UT
266.001	1.000	Valid Miss Cue: valid cue where following object was a subsequent miss	OBJ	V	1	 0.6035	HC-MISS	 1.5724	UT	UT
268.001	0.500	Valid Miss Obj: object that was a subsequent miss and that followed a valid cue	OBJ	V	1	 0.6035	HC-MISS	 1.5724	UT	UT
270.002	1.000	Invalid HC-Hit Cue: invalid cue where following object was a subsequent high confidence hit	OBJ	NV	1	 0.7114	HC-HIT	 1.0158	1	0.63242
272.002	0.500	Invalid HC-Hit Obj: object that was a subsequent high confidence hit and that followed an invalid cue	OBJ	NV	1	 0.7114	HC-HIT	 1.0158	1	0.63242
276.001	1.000	Valid Other Obj Cue: valid cue where following stimulus was an untested or no response object	OBJ	V	1	0.67295	UT	UT	UT	UT
278.001	0.500	Valid Other Obj: stimulus that was an untested or no response object and that followed a valid cue	OBJ	V	1	0.67295	UT	UT	UT	UT
280.002	1.000	Valid Other Greeble Cue: valid cue where following stimulus was an untested or no response greeble	GRE	V	1	0.60462	UT	UT	UT	UT
282.002	0.500	Valid Other Greeble: stimulus that was an untested or no response greeble and that followed a valid cue	GRE	V	1	0.60462	UT	UT	UT	UT
284.001	1.000	Valid Miss Cue: valid cue where following object was a subsequent miss	OBJ	V	1	0.54728	HC-MISS	0.93136	UT	UT
290.001	0.500	Valid Miss Obj: object that was a subsequent miss and that followed a valid cue	OBJ	V	1	0.54728	HC-MISS	0.93136	UT	UT
292.001	1.000	Valid HC-Hit Cue: valid cue where following object was a subsequent high confidence hit	OBJ	V	1	0.53602	HC-HIT	 1.2852	0	0.85628
294.001	0.500	Valid HC-Hit Obj: object that was a subsequent high confidence hit and that followed a valid cue	OBJ	V	1	0.53602	HC-HIT	 1.2852	0	0.85628
296.001	1.000	Valid Miss Cue: valid cue where following object was a subsequent miss	OBJ	V	1	0.68895	HC-MISS	 1.6647	UT	UT
300.001	0.500	Valid Miss Obj: object that was a subsequent miss and that followed a valid cue	OBJ	V	1	0.68895	HC-MISS	 1.6647	UT	UT
302.002	1.000	Invalid Miss Cue: invalid cue where following object was a subsequent miss	OBJ	NV	1	0.60253	HC-MISS	 1.1634	UT	UT
306.002	0.500	Invalid Miss Obj: object that was a subsequent miss and that followed an invalid cue	OBJ	NV	1	0.60253	HC-MISS	 1.1634	UT	UT
310.002	1.000	Valid Miss Cue: valid cue where following object was a subsequent miss	OBJ	V	1	0.53646	HC-MISS	 2.0527	UT	UT
316.002	0.500	Valid Miss Obj: object that was a subsequent miss and that followed a valid cue	OBJ	V	1	0.53646	HC-MISS	 2.0527	UT	UT
318.001	1.000	Valid HC-Hit Cue: valid cue where following object was a subsequent high confidence hit	OBJ	V	1	 0.5561	HC-HIT	 1.1626	0	0.59437
320.001	0.500	Valid HC-Hit Obj: object that was a subsequent high confidence hit and that followed a valid cue	OBJ	V	1	 0.5561	HC-HIT	 1.1626	0	0.59437
324.001	1.000	Invalid Other Greeble Cue: invalid cue where following stimulus was an untested or no response greeble	GRE	NV	1	0.70222	UT	UT	UT	UT
326.001	0.500	Invalid Other Greeble: stimulus that was an untested or no response greeble and that followed a invalid cue	GRE	NV	1	0.70222	UT	UT	UT	UT
328.001	1.000	Valid Other Greeble Cue: valid cue where following stimulus was an untested or no response greeble	GRE	V	1	0.58138	UT	UT	UT	UT
334.001	0.500	Valid Other Greeble: stimulus that was an untested or no response greeble and that followed a valid cue	GRE	V	1	0.58138	UT	UT	UT	UT
338.002	1.000	Valid Other Greeble Cue: valid cue where following stimulus was an untested or no response greeble	GRE	V	1	0.51145	UT	UT	UT	UT
340.002	0.500	Valid Other Greeble: stimulus that was an untested or no response greeble and that followed a valid cue	GRE	V	1	0.51145	UT	UT	UT	UT
342.002	1.000	Valid Miss Cue: valid cue where following object was a subsequent miss	OBJ	V	1	0.63041	HC-MISS	 1.1047	UT	UT
348.002	0.500	Valid Miss Obj: object that was a subsequent miss and that followed a valid cue	OBJ	V	1	0.63041	HC-MISS	 1.1047	UT	UT
350.002	1.000	Valid Miss Cue: valid cue where following object was a subsequent miss	OBJ	V	1	0.57678	HC-MISS	 2.6871	UT	UT
354.002	0.500	Valid Miss Obj: object that was a subsequent miss and that followed a valid cue	OBJ	V	1	0.57678	HC-MISS	 2.6871	UT	UT
356.001	1.000	Valid Other Greeble Cue: valid cue where following stimulus was an untested or no response greeble	GRE	V	1	0.53752	UT	UT	UT	UT
360.001	0.500	Valid Other Greeble: stimulus that was an untested or no response greeble and that followed a valid cue	GRE	V	1	0.53752	UT	UT	UT	UT
362.001	n/a	n/a	OBJ	NV	NR	NR	NR	NR	UT	UT
364.001	n/a	n/a	OBJ	NV	NR	NR	NR	NR	UT	UT
