onset	duration	trial_type	Object_Cond	Validity_Cond	Obj_Accuracy	Obj_Acc_RT	Subseq_Recog	Subseq_Recog_RT	Subseq_Source_Mem_Acc	Subseq_Source_Mem_Acc_RT
4.001	1.000	Valid Other Obj Cue: valid cue where following stimulus was an untested or no response object	OBJ	V	1	0.54621	UT	UT	UT	UT
6.001	0.500	Valid Other Obj: stimulus that was an untested or no response object and that followed a valid cue	OBJ	V	1	0.54621	UT	UT	UT	UT
8.002	1.000	Invalid LC-Hit Cue: invalid cue where following object was a subsequent low confidence hit	OBJ	NV	1	0.62643	LC-HIT	 3.7377	1	0.59773
14.002	0.500	Invalid LC-Hit Obj: object that was a subsequent low confidence hit and that followed an invalid cue	OBJ	NV	1	0.62643	LC-HIT	 3.7377	1	0.59773
16.002	1.000	Valid HC-Hit Cue: valid cue where following object was a subsequent high confidence hit	OBJ	V	1	0.59619	HC-HIT	 2.5588	0	1.0671
20.002	0.500	Valid HC-Hit Obj: object that was a subsequent high confidence hit and that followed a valid cue	OBJ	V	1	0.59619	HC-HIT	 2.5588	0	1.0671
22.001	1.000	Valid Other Greeble Cue: valid cue where following stimulus was an untested or no response greeble	GRE	V	1	0.55948	UT	UT	UT	UT
24.001	0.500	Valid Other Greeble: stimulus that was an untested or no response greeble and that followed a valid cue	GRE	V	1	0.55948	UT	UT	UT	UT
26.001	1.000	Valid Other Obj Cue: valid cue where following stimulus was an untested or no response object	OBJ	V	1	0.67346	UT	UT	UT	UT
30.001	0.500	Valid Other Obj: stimulus that was an untested or no response object and that followed a valid cue	OBJ	V	1	0.67346	UT	UT	UT	UT
32.001	1.000	Valid HC-Hit Cue: valid cue where following object was a subsequent high confidence hit	OBJ	V	NR	NR	HC-HIT	 1.0873	1	1.3696
36.001	0.500	Valid HC-Hit Obj: object that was a subsequent high confidence hit and that followed a valid cue	OBJ	V	NR	NR	HC-HIT	 1.0873	1	1.3696
40.002	1.000	Invalid LC-Hit Cue: invalid cue where following object was a subsequent low confidence hit	OBJ	NV	1	0.58905	LC-HIT	 2.3365	0	1.3477
42.002	0.500	Invalid LC-Hit Obj: object that was a subsequent low confidence hit and that followed an invalid cue	OBJ	NV	1	0.58905	LC-HIT	 2.3365	0	1.3477
44.001	1.000	Valid Other Obj Cue: valid cue where following stimulus was an untested or no response object	OBJ	V	1	0.57505	UT	UT	UT	UT
48.001	0.500	Valid Other Obj: stimulus that was an untested or no response object and that followed a valid cue	OBJ	V	1	0.57505	UT	UT	UT	UT
50.001	1.000	Valid Other Greeble Cue: valid cue where following stimulus was an untested or no response greeble	GRE	V	1	0.63563	UT	UT	UT	UT
52.001	0.500	Valid Other Greeble: stimulus that was an untested or no response greeble and that followed a valid cue	GRE	V	1	0.63563	UT	UT	UT	UT
54.002	1.000	Valid Other Greeble Cue: valid cue where following stimulus was an untested or no response greeble	GRE	V	1	0.58595	UT	UT	UT	UT
60.002	0.500	Valid Other Greeble: stimulus that was an untested or no response greeble and that followed a valid cue	GRE	V	1	0.58595	UT	UT	UT	UT
62.001	1.000	Valid Miss Cue: valid cue where following object was a subsequent miss	OBJ	V	1	0.54092	HC-MISS	 2.0675	UT	UT
66.001	0.500	Valid Miss Obj: object that was a subsequent miss and that followed a valid cue	OBJ	V	1	0.54092	HC-MISS	 2.0675	UT	UT
68.001	1.000	Invalid HC-Hit Cue: invalid cue where following object was a subsequent high confidence hit	OBJ	NV	1	0.72478	HC-HIT	  1.608	0	0.24472
72.001	0.500	Invalid HC-Hit Obj: object that was a subsequent high confidence hit and that followed an invalid cue	OBJ	NV	1	0.72478	HC-HIT	  1.608	0	0.24472
74.001	1.000	Valid Other Greeble Cue: valid cue where following stimulus was an untested or no response greeble	GRE	V	1	0.58598	UT	UT	UT	UT
76.001	0.500	Valid Other Greeble: stimulus that was an untested or no response greeble and that followed a valid cue	GRE	V	1	0.58598	UT	UT	UT	UT
78.001	1.000	Valid HC-Hit Cue: valid cue where following object was a subsequent high confidence hit	OBJ	V	1	0.51319	HC-HIT	 2.6858	1	0.36224
84.001	0.500	Valid HC-Hit Obj: object that was a subsequent high confidence hit and that followed a valid cue	OBJ	V	1	0.51319	HC-HIT	 2.6858	1	0.36224
86.001	1.000	Valid Other Greeble Cue: valid cue where following stimulus was an untested or no response greeble	GRE	V	1	0.63377	UT	UT	UT	UT
90.001	0.500	Valid Other Greeble: stimulus that was an untested or no response greeble and that followed a valid cue	GRE	V	1	0.63377	UT	UT	UT	UT
92.002	1.000	Invalid Other Greeble Cue: invalid cue where following stimulus was an untested or no response greeble	GRE	NV	1	 0.6028	UT	UT	UT	UT
98.002	0.500	Invalid Other Greeble: stimulus that was an untested or no response greeble and that followed a invalid cue	GRE	NV	1	 0.6028	UT	UT	UT	UT
102.001	1.000	Valid LC-Hit Cue: valid cue where following object was a subsequent low confidence hit	OBJ	V	1	0.60348	LC-HIT	  2.897	1	1.2048
104.001	0.500	Valid LC-Hit Obj: object that was a subsequent low confidence hit and that followed a valid cue	OBJ	V	1	0.60348	LC-HIT	  2.897	1	1.2048
106.001	1.000	Valid HC-Hit Cue: valid cue where following object was a subsequent high confidence hit	OBJ	V	1	0.56024	HC-HIT	0.98406	0	1.5666
108.001	0.500	Valid HC-Hit Obj: object that was a subsequent high confidence hit and that followed a valid cue	OBJ	V	1	0.56024	HC-HIT	0.98406	0	1.5666
112.001	1.000	Valid Miss Cue: valid cue where following object was a subsequent miss	OBJ	V	1	0.52662	HC-MISS	 1.1604	UT	UT
116.001	0.500	Valid Miss Obj: object that was a subsequent miss and that followed a valid cue	OBJ	V	1	0.52662	HC-MISS	 1.1604	UT	UT
122.001	1.000	Invalid LC-Hit Cue: invalid cue where following object was a subsequent low confidence hit	OBJ	NV	1	0.62724	LC-HIT	 2.1595	0	0.49877
128.001	0.500	Invalid LC-Hit Obj: object that was a subsequent low confidence hit and that followed an invalid cue	OBJ	NV	1	0.62724	LC-HIT	 2.1595	0	0.49877
132.001	1.000	Valid Other Greeble Cue: valid cue where following stimulus was an untested or no response greeble	GRE	V	1	 0.6809	UT	UT	UT	UT
138.001	0.500	Valid Other Greeble: stimulus that was an untested or no response greeble and that followed a valid cue	GRE	V	1	 0.6809	UT	UT	UT	UT
140.002	1.000	Invalid HC-Hit Cue: invalid cue where following object was a subsequent high confidence hit	OBJ	NV	1	0.77997	HC-HIT	  1.366	0	0.68533
142.002	0.500	Invalid HC-Hit Obj: object that was a subsequent high confidence hit and that followed an invalid cue	OBJ	NV	1	0.77997	HC-HIT	  1.366	0	0.68533
148.001	1.000	Valid Other Greeble Cue: valid cue where following stimulus was an untested or no response greeble	GRE	V	1	0.55496	UT	UT	UT	UT
150.001	0.500	Valid Other Greeble: stimulus that was an untested or no response greeble and that followed a valid cue	GRE	V	1	0.55496	UT	UT	UT	UT
152.002	1.000	Valid HC-Hit Cue: valid cue where following object was a subsequent high confidence hit	OBJ	V	1	0.61132	HC-HIT	 1.5653	0	2.0988
158.002	0.500	Valid HC-Hit Obj: object that was a subsequent high confidence hit and that followed a valid cue	OBJ	V	1	0.61132	HC-HIT	 1.5653	0	2.0988
160.002	1.000	Valid HC-Hit Cue: valid cue where following object was a subsequent high confidence hit	OBJ	V	1	0.53221	HC-HIT	 2.2799	0	1.3903
164.002	0.500	Valid HC-Hit Obj: object that was a subsequent high confidence hit and that followed a valid cue	OBJ	V	1	0.53221	HC-HIT	 2.2799	0	1.3903
166.001	1.000	Valid Other Greeble Cue: valid cue where following stimulus was an untested or no response greeble	GRE	V	1	0.51633	UT	UT	UT	UT
172.001	0.500	Valid Other Greeble: stimulus that was an untested or no response greeble and that followed a valid cue	GRE	V	1	0.51633	UT	UT	UT	UT
174.001	1.000	Valid HC-Hit Cue: valid cue where following object was a subsequent high confidence hit	OBJ	V	1	 0.6788	HC-HIT	 1.3232	0	1.4043
178.001	0.500	Valid HC-Hit Obj: object that was a subsequent high confidence hit and that followed a valid cue	OBJ	V	1	 0.6788	HC-HIT	 1.3232	0	1.4043
180.001	1.000	Invalid HC-Hit Cue: invalid cue where following object was a subsequent high confidence hit	OBJ	NV	1	0.66651	HC-HIT	 2.5995	1	1.6388
182.001	0.500	Invalid HC-Hit Obj: object that was a subsequent high confidence hit and that followed an invalid cue	OBJ	NV	1	0.66651	HC-HIT	 2.5995	1	1.6388
186.001	1.000	Valid Miss Cue: valid cue where following object was a subsequent miss	OBJ	V	1	0.53147	HC-MISS	 2.0513	UT	UT
188.001	0.500	Valid Miss Obj: object that was a subsequent miss and that followed a valid cue	OBJ	V	1	0.53147	HC-MISS	 2.0513	UT	UT
190.001	1.000	Valid Other Greeble Cue: valid cue where following stimulus was an untested or no response greeble	GRE	V	1	0.48026	UT	UT	UT	UT
196.001	0.500	Valid Other Greeble: stimulus that was an untested or no response greeble and that followed a valid cue	GRE	V	1	0.48026	UT	UT	UT	UT
198.001	1.000	Valid Miss Cue: valid cue where following object was a subsequent miss	OBJ	V	1	 0.5237	LC-MISS	 2.7535	UT	UT
204.001	0.500	Valid Miss Obj: object that was a subsequent miss and that followed a valid cue	OBJ	V	1	 0.5237	LC-MISS	 2.7535	UT	UT
206.002	1.000	Valid Other Greeble Cue: valid cue where following stimulus was an untested or no response greeble	GRE	V	1	0.60226	UT	UT	UT	UT
212.002	0.500	Valid Other Greeble: stimulus that was an untested or no response greeble and that followed a valid cue	GRE	V	1	0.60226	UT	UT	UT	UT
214.001	1.000	Invalid Miss Cue: invalid cue where following object was a subsequent miss	OBJ	NV	1	0.74037	HC-MISS	 2.2167	UT	UT
218.001	0.500	Invalid Miss Obj: object that was a subsequent miss and that followed an invalid cue	OBJ	NV	1	0.74037	HC-MISS	 2.2167	UT	UT
222.001	1.000	Valid HC-Hit Cue: valid cue where following object was a subsequent high confidence hit	OBJ	V	1	0.66198	HC-HIT	0.93783	1	1.3413
224.001	0.500	Valid HC-Hit Obj: object that was a subsequent high confidence hit and that followed a valid cue	OBJ	V	1	0.66198	HC-HIT	0.93783	1	1.3413
226.003	1.000	Valid Miss Cue: valid cue where following object was a subsequent miss	OBJ	V	1	0.57827	HC-MISS	 2.6676	UT	UT
228.003	0.500	Valid Miss Obj: object that was a subsequent miss and that followed a valid cue	OBJ	V	1	0.57827	HC-MISS	 2.6676	UT	UT
232.001	1.000	Valid HC-Hit Cue: valid cue where following object was a subsequent high confidence hit	OBJ	V	1	0.52902	HC-HIT	 2.7292	0	2.2993
236.001	0.500	Valid HC-Hit Obj: object that was a subsequent high confidence hit and that followed a valid cue	OBJ	V	1	0.52902	HC-HIT	 2.7292	0	2.2993
238.001	1.000	Valid Miss Cue: valid cue where following object was a subsequent miss	OBJ	V	1	0.51316	LC-MISS	 3.1827	UT	UT
244.001	0.500	Valid Miss Obj: object that was a subsequent miss and that followed a valid cue	OBJ	V	1	0.51316	LC-MISS	 3.1827	UT	UT
246.002	1.000	Valid HC-Hit Cue: valid cue where following object was a subsequent high confidence hit	OBJ	V	1	0.57017	HC-HIT	 1.3624	0	1.1929
250.002	0.500	Valid HC-Hit Obj: object that was a subsequent high confidence hit and that followed a valid cue	OBJ	V	1	0.57017	HC-HIT	 1.3624	0	1.1929
252.001	1.000	Invalid Other Greeble Cue: invalid cue where following stimulus was an untested or no response greeble	GRE	NV	1	0.65751	UT	UT	UT	UT
258.001	0.500	Invalid Other Greeble: stimulus that was an untested or no response greeble and that followed a invalid cue	GRE	NV	1	0.65751	UT	UT	UT	UT
260.001	1.000	Valid Other Greeble Cue: valid cue where following stimulus was an untested or no response greeble	GRE	V	1	0.52297	UT	UT	UT	UT
264.001	0.500	Valid Other Greeble: stimulus that was an untested or no response greeble and that followed a valid cue	GRE	V	1	0.52297	UT	UT	UT	UT
266.001	1.000	Valid Other Obj Cue: valid cue where following stimulus was an untested or no response object	OBJ	V	1	0.60755	UT	UT	UT	UT
268.001	0.500	Valid Other Obj: stimulus that was an untested or no response object and that followed a valid cue	OBJ	V	1	0.60755	UT	UT	UT	UT
270.001	1.000	Valid Other Greeble Cue: valid cue where following stimulus was an untested or no response greeble	GRE	V	1	0.78368	UT	UT	UT	UT
276.001	0.500	Valid Other Greeble: stimulus that was an untested or no response greeble and that followed a valid cue	GRE	V	1	0.78368	UT	UT	UT	UT
278.001	1.000	Valid Miss Cue: valid cue where following object was a subsequent miss	OBJ	V	1	0.65744	HC-MISS	 1.5313	UT	UT
282.001	0.500	Valid Miss Obj: object that was a subsequent miss and that followed a valid cue	OBJ	V	1	0.65744	HC-MISS	 1.5313	UT	UT
284.001	1.000	Valid Miss Cue: valid cue where following object was a subsequent miss	OBJ	V	1	0.82401	HC-MISS	 1.7869	UT	UT
290.001	0.500	Valid Miss Obj: object that was a subsequent miss and that followed a valid cue	OBJ	V	1	0.82401	HC-MISS	 1.7869	UT	UT
292.001	1.000	Valid Miss Cue: valid cue where following object was a subsequent miss	OBJ	V	1	  1.052	HC-MISS	0.89967	UT	UT
294.001	0.500	Valid Miss Obj: object that was a subsequent miss and that followed a valid cue	OBJ	V	1	  1.052	HC-MISS	0.89967	UT	UT
296.001	1.000	Valid Other Obj Cue: valid cue where following stimulus was an untested or no response object	OBJ	V	1	0.73706	UT	UT	UT	UT
298.001	0.500	Valid Other Obj: stimulus that was an untested or no response object and that followed a valid cue	OBJ	V	1	0.73706	UT	UT	UT	UT
300.001	1.000	Valid HC-Hit Cue: valid cue where following object was a subsequent high confidence hit	OBJ	V	1	0.57745	HC-HIT	 1.1671	0	0.61413
304.001	0.500	Valid HC-Hit Obj: object that was a subsequent high confidence hit and that followed a valid cue	OBJ	V	1	0.57745	HC-HIT	 1.1671	0	0.61413
306.001	1.000	Valid HC-Hit Cue: valid cue where following object was a subsequent high confidence hit	OBJ	V	1	0.52911	HC-HIT	0.98703	0	1.1063
312.001	0.500	Valid HC-Hit Obj: object that was a subsequent high confidence hit and that followed a valid cue	OBJ	V	1	0.52911	HC-HIT	0.98703	0	1.1063
314.001	1.000	Valid Miss Cue: valid cue where following object was a subsequent miss	OBJ	V	1	 0.6172	HC-MISS	0.99131	UT	UT
320.001	0.500	Valid Miss Obj: object that was a subsequent miss and that followed a valid cue	OBJ	V	1	 0.6172	HC-MISS	0.99131	UT	UT
324.001	1.000	Valid Miss Cue: valid cue where following object was a subsequent miss	OBJ	V	1	0.58479	LC-MISS	 2.9264	UT	UT
328.001	0.500	Valid Miss Obj: object that was a subsequent miss and that followed a valid cue	OBJ	V	1	0.58479	LC-MISS	 2.9264	UT	UT
332.001	1.000	Valid Other Greeble Cue: valid cue where following stimulus was an untested or no response greeble	GRE	V	1	0.58166	UT	UT	UT	UT
338.001	0.500	Valid Other Greeble: stimulus that was an untested or no response greeble and that followed a valid cue	GRE	V	1	0.58166	UT	UT	UT	UT
342.002	1.000	Valid HC-Hit Cue: valid cue where following object was a subsequent high confidence hit	OBJ	V	1	0.85594	HC-HIT	 1.4524	1	0.36708
344.002	0.500	Valid HC-Hit Obj: object that was a subsequent high confidence hit and that followed a valid cue	OBJ	V	1	0.85594	HC-HIT	 1.4524	1	0.36708
346.001	1.000	Invalid LC-Hit Cue: invalid cue where following object was a subsequent low confidence hit	OBJ	NV	1	0.64951	LC-HIT	 1.9994	1	0.81157
350.001	0.500	Invalid LC-Hit Obj: object that was a subsequent low confidence hit and that followed an invalid cue	OBJ	NV	1	0.64951	LC-HIT	 1.9994	1	0.81157
352.002	1.000	Valid Other Greeble Cue: valid cue where following stimulus was an untested or no response greeble	GRE	V	1	 0.6189	UT	UT	UT	UT
356.002	0.500	Valid Other Greeble: stimulus that was an untested or no response greeble and that followed a valid cue	GRE	V	1	 0.6189	UT	UT	UT	UT
358.002	1.000	Valid Miss Cue: valid cue where following object was a subsequent miss	OBJ	V	1	0.77522	HC-MISS	 2.0123	UT	UT
360.002	0.500	Valid Miss Obj: object that was a subsequent miss and that followed a valid cue	OBJ	V	1	0.77522	HC-MISS	 2.0123	UT	UT
362.002	1.000	Valid Other Obj Cue: valid cue where following stimulus was an untested or no response object	OBJ	V	1	0.62587	NR	NR	UT	UT
364.002	0.500	Valid Other Obj: stimulus that was an untested or no response object and that followed a valid cue	OBJ	V	1	0.62587	NR	NR	UT	UT
