onset	duration	trial_number	event_type	executed_movement	correct_movement	shown_stimulus	included_trial	reason_for_exclusion
9.98000000001048	25.02	1	stimulus	n/a	n/a	white X	0	test trial
35	9.50384070002474	1	stimulus	n/a	n/a	red X	0	test trial
35.3540226000187	0	1	finger press	4	4	n/a	0	test trial
36.0187569000118	0	1	finger press	3	3	n/a	0	test trial
36.6165163000114	0	1	finger press	4	4	n/a	0	test trial
37.3445941000246	0	1	finger press	1	1	n/a	0	test trial
37.9874442	0	1	finger press	4	4	n/a	0	test trial
38.6556617000024	0	1	finger press	1	1	n/a	0	test trial
39.2789564000268	0	1	finger press	2	2	n/a	0	test trial
39.9547471000114	0	1	finger press	4	4	n/a	0	test trial
40.5957649000047	0	1	finger press	3	3	n/a	0	test trial
41.2050329000049	0	1	finger press	2	2	n/a	0	test trial
41.9238491000142	0	1	finger press	1	1	n/a	0	test trial
42.4871142000193	0	1	finger press	2	2	n/a	0	test trial
44.5400000000081	5	1	stimulus	n/a	n/a	white X	0	test trial
51.7600000000093	25.02	2	stimulus	n/a	n/a	white X	1	n/a
76.7352108000196	9.50426549999975	2	stimulus	n/a	n/a	red X	1	n/a
77.1387817000214	0	2	finger press	4	4	n/a	1	n/a
77.745679500018	0	2	finger press	3	3	n/a	1	n/a
78.3186816000089	0	2	finger press	4	4	n/a	1	n/a
78.9289359000104	0	2	finger press	1	1	n/a	1	n/a
79.6017986000224	0	2	finger press	4	4	n/a	1	n/a
80.1932637999998	0	2	finger press	1	1	n/a	1	n/a
80.8357521000144	0	2	finger press	2	2	n/a	1	n/a
81.5015691000153	0	2	finger press	4	4	n/a	1	n/a
82.1348732000042	0	2	finger press	3	3	n/a	1	n/a
82.792565700016	0	2	finger press	2	2	n/a	1	n/a
83.4666886000196	0	2	finger press	1	1	n/a	1	n/a
84.0631938000151	0	2	finger press	2	2	n/a	1	n/a
86.2799999999988	5	2	stimulus	n/a	n/a	white X	1	n/a
92.2000000000116	21.02	3	stimulus	n/a	n/a	white X	1	n/a
113.180936400022	9.50487400000566	3	stimulus	n/a	n/a	red X	1	n/a
113.618560600007	0	3	finger press	4	4	n/a	1	n/a
114.225704600016	0	3	finger press	3	3	n/a	1	n/a
114.830500000011	0	3	finger press	4	4	n/a	1	n/a
115.447141000011	0	3	finger press	1	1	n/a	1	n/a
116.097570000013	0	3	finger press	4	4	n/a	1	n/a
116.810710900027	0	3	finger press	1	1	n/a	1	n/a
117.455292800005	0	3	finger press	2	2	n/a	1	n/a
118.138420600008	0	3	finger press	4	4	n/a	1	n/a
118.767673300026	0	3	finger press	3	3	n/a	1	n/a
119.386669600004	0	3	finger press	2	2	n/a	1	n/a
120.062146100012	0	3	finger press	1	1	n/a	1	n/a
120.617616400006	0	3	finger press	2	2	n/a	1	n/a
122.720000000001	5	3	stimulus	n/a	n/a	white X	1	n/a
128.600000000006	25	4	stimulus	n/a	n/a	white X	1	n/a
153.561660000007	9.50389220000943	4	stimulus	n/a	n/a	red X	1	n/a
153.986241200007	0	4	finger press	4	4	n/a	1	n/a
154.5610781	0	4	finger press	3	3	n/a	1	n/a
155.186032800004	0	4	finger press	4	4	n/a	1	n/a
155.776315100025	0	4	finger press	1	1	n/a	1	n/a
156.400473100017	0	4	finger press	4	4	n/a	1	n/a
157.040079099999	0	4	finger press	1	1	n/a	1	n/a
157.650103300024	0	4	finger press	2	2	n/a	1	n/a
158.281460600003	0	4	finger press	4	4	n/a	1	n/a
158.914155700011	0	4	finger press	3	3	n/a	1	n/a
159.533957600011	0	4	finger press	2	2	n/a	1	n/a
160.185649500025	0	4	finger press	1	1	n/a	1	n/a
160.757841500017	0	4	finger press	2	2	n/a	1	n/a
163.100000000006	5	4	stimulus	n/a	n/a	white X	1	n/a
168.700000000012	24.02	5	stimulus	n/a	n/a	white X	1	n/a
192.679123300011	9.5042206000071	5	stimulus	n/a	n/a	red X	1	n/a
193.088547200023	0	5	finger press	4	4	n/a	1	n/a
193.697463700024	0	5	finger press	3	3	n/a	1	n/a
194.270208300004	0	5	finger press	4	4	n/a	1	n/a
194.970990200003	0	5	finger press	1	1	n/a	1	n/a
195.576053100027	0	5	finger press	4	4	n/a	1	n/a
196.192417600018	0	5	finger press	1	1	n/a	1	n/a
196.891257300013	0	5	finger press	2	2	n/a	1	n/a
197.52730300001	0	5	finger press	4	4	n/a	1	n/a
198.134953100001	0	5	finger press	3	3	n/a	1	n/a
198.757974200009	0	5	finger press	2	2	n/a	1	n/a
199.366210500011	0	5	finger press	1	1	n/a	1	n/a
199.99867880001	0	5	finger press	2	2	n/a	1	n/a
202.220000000001	5	5	stimulus	n/a	n/a	white X	1	n/a
210.380000000005	21	6	stimulus	n/a	n/a	white X	1	n/a
231.347964400018	9.50291290000314	6	stimulus	n/a	n/a	red X	1	n/a
231.872021200019	0	6	finger press	4	4	n/a	1	n/a
232.4462871	0	6	finger press	3	3	n/a	1	n/a
233.077793200006	0	6	finger press	4	4	n/a	1	n/a
233.7259318	0	6	finger press	1	1	n/a	1	n/a
234.370011100022	0	6	finger press	4	4	n/a	1	n/a
235.057419600023	0	6	finger press	1	1	n/a	1	n/a
235.711661300011	0	6	finger press	2	2	n/a	1	n/a
236.325886900013	0	6	finger press	4	4	n/a	1	n/a
236.970347300026	0	6	finger press	3	3	n/a	1	n/a
237.6003317	0	6	finger press	2	2	n/a	1	n/a
238.237951700023	0	6	finger press	1	1	n/a	1	n/a
238.850410300016	0	6	finger press	2	2	n/a	1	n/a
240.880000000005	5	6	stimulus	n/a	n/a	white X	1	n/a
247.040000000008	22	7	stimulus	n/a	n/a	white X	1	n/a
269.011246200011	9.50282650001463	7	stimulus	n/a	n/a	red X	1	n/a
269.511453200015	0	7	finger press	4	4	n/a	1	n/a
270.093811700004	0	7	finger press	3	3	n/a	1	n/a
270.702069400024	0	7	finger press	4	4	n/a	1	n/a
271.353525000013	0	7	finger press	1	1	n/a	1	n/a
272.00264380002	0	7	finger press	4	4	n/a	1	n/a
272.582187000022	0	7	finger press	1	1	n/a	1	n/a
273.258392400021	0	7	finger press	2	2	n/a	1	n/a
273.855226500018	0	7	finger press	4	4	n/a	1	n/a
274.458228700008	0	7	finger press	3	3	n/a	1	n/a
275.067590000021	0	7	finger press	2	2	n/a	1	n/a
275.689929400018	0	7	finger press	1	1	n/a	1	n/a
276.273776100017	0	7	finger press	2	2	n/a	1	n/a
278.559999999998	5	7	stimulus	n/a	n/a	white X	1	n/a
284.160000000003	23	8	stimulus	n/a	n/a	white X	1	n/a
307.128141300025	9.50314889999572	8	stimulus	n/a	n/a	red X	1	n/a
307.541968000005	0	8	finger press	4	4	n/a	1	n/a
308.167493200017	0	8	finger press	3	3	n/a	1	n/a
308.782149000006	0	8	finger press	4	4	n/a	1	n/a
309.417769300024	0	8	finger press	1	1	n/a	1	n/a
310.104020800005	0	8	finger press	4	4	n/a	1	n/a
310.747531900008	0	8	finger press	1	1	n/a	1	n/a
311.4065978	0	8	finger press	2	2	n/a	1	n/a
312.045937300019	0	8	finger press	4	4	n/a	1	n/a
312.630845600012	0	8	finger press	3	3	n/a	1	n/a
313.24705580002	0	8	finger press	2	2	n/a	1	n/a
313.869815800019	0	8	finger press	1	1	n/a	1	n/a
314.45602730001	0	8	finger press	2	2	n/a	1	n/a
316.660000000003	5	8	stimulus	n/a	n/a	white X	1	n/a
322.579999999987	25.02	9	stimulus	n/a	n/a	white X	1	n/a
347.552225100022	9.50410619998001	9	stimulus	n/a	n/a	red X	1	n/a
347.999996099999	0	9	finger press	4	4	n/a	1	n/a
348.5504984	0	9	finger press	3	3	n/a	1	n/a
349.182051100011	0	9	finger press	4	4	n/a	1	n/a
349.792216800008	0	9	finger press	1	1	n/a	1	n/a
350.398261800001	0	9	finger press	4	4	n/a	1	n/a
350.997667400021	0	9	finger press	1	1	n/a	1	n/a
351.675154700002	0	9	finger press	2	2	n/a	1	n/a
352.354948799999	0	9	finger press	4	4	n/a	1	n/a
352.960856200021	0	9	finger press	3	3	n/a	1	n/a
353.631944200024	0	9	finger press	2	2	n/a	1	n/a
354.253552000009	0	9	finger press	1	1	n/a	1	n/a
354.895083800016	0	9	finger press	2	2	n/a	1	n/a
357.100000000006	5	9	stimulus	n/a	n/a	white X	1	n/a
363.200000000012	25	10	stimulus	n/a	n/a	white X	1	n/a
388.160615900008	9.50310659999377	10	stimulus	n/a	n/a	red X	1	n/a
388.554981200024	0	10	finger press	4	4	n/a	1	n/a
389.137370800017	0	10	finger press	3	3	n/a	1	n/a
389.727477700013	0	10	finger press	4	4	n/a	1	n/a
390.333761800022	0	10	finger press	1	1	n/a	1	n/a
391.038090600021	0	10	finger press	4	4	n/a	1	n/a
391.662075100001	0	10	finger press	1	1	n/a	1	n/a
392.410685200011	0	10	finger press	2	2	n/a	1	n/a
393.058103000018	0	10	finger press	4	4	n/a	1	n/a
393.637551300024	0	10	finger press	3	3	n/a	1	n/a
394.282445400022	0	10	finger press	2	2	n/a	1	n/a
394.893651100021	0	10	finger press	1	1	n/a	1	n/a
395.561239600007	0	10	finger press	2	2	n/a	1	n/a
397.700000000012	5	10	stimulus	n/a	n/a	white X	1	n/a
403.640000000014	21.02	11	stimulus	n/a	n/a	white X	1	n/a
424.617348	9.50302050000755	11	stimulus	n/a	n/a	red X	1	n/a
425.081384400022	0	11	finger press	4	4	n/a	1	n/a
425.657090100023	0	11	finger press	3	3	n/a	1	n/a
426.295956700022	0	11	finger press	4	4	n/a	1	n/a
426.858100300014	0	11	finger press	1	1	n/a	1	n/a
427.535870700027	0	11	finger press	4	4	n/a	1	n/a
428.141523700004	0	11	finger press	1	1	n/a	1	n/a
428.761341400008	0	11	finger press	2	2	n/a	1	n/a
429.448724800022	0	11	finger press	4	4	n/a	1	n/a
430.226995300007	0	11	finger press	3	3	n/a	1	n/a
430.933384500007	0	11	finger press	2	2	n/a	1	n/a
431.601324400021	0	11	finger press	1	1	n/a	1	n/a
432.229733800021	0	11	finger press	2	2	n/a	1	n/a
434.160000000003	5	11	stimulus	n/a	n/a	white X	1	n/a
