onset	duration	trial_number	event_type	executed_movement	correct_movement	shown_stimulus	included_trial	reason_for_exclusion
9.98000000001048	25.02	1	stimulus	n/a	n/a	white X	0	test trial
35	9.50741029999335	1	stimulus	n/a	n/a	red X	0	test trial
36.3299999999872	0	1	foot step	2	2	n/a	0	test trial
37.109999999986	0	1	foot step	1	1	n/a	0	test trial
37.7999999999884	0	1	foot step	2	2	n/a	0	test trial
38.359999999986	0	1	foot step	3	3	n/a	0	test trial
39.070000000007	0	1	foot step	2	2	n/a	0	test trial
39.6300000000047	0	1	foot step	1	1	n/a	0	test trial
40.179999999993	0	1	foot step	3	3	n/a	0	test trial
40.8999999999942	0	1	foot step	2	2	n/a	0	test trial
41.5199999999895	0	1	foot step	4	4	n/a	0	test trial
42.1300000000047	0	1	foot step	2	2	n/a	0	test trial
42.7099999999919	0	1	foot step	4	4	n/a	0	test trial
43.320000000007	0	1	foot step	1	1	n/a	0	test trial
44.5	5	1	stimulus	n/a	n/a	white X	0	test trial
56.179999999993	25	2	stimulus	n/a	n/a	white X	1	n/a
81.1927897999994	9.50689459999558	2	stimulus	n/a	n/a	red X	1	n/a
82.2427897999878	0	2	foot step	2	2	n/a	1	n/a
82.8027897999855	0	2	foot step	1	1	n/a	1	n/a
83.4827898000076	0	2	foot step	2	2	n/a	1	n/a
84.1527897999913	0	2	foot step	3	3	n/a	1	n/a
84.8527898000029	0	2	foot step	2	2	n/a	1	n/a
85.3727897999925	0	2	foot step	1	1	n/a	1	n/a
85.9827898000076	0	2	foot step	3	3	n/a	1	n/a
86.7027898000088	0	2	foot step	2	2	n/a	1	n/a
87.3627898000123	0	2	foot step	4	4	n/a	1	n/a
87.962789799989	0	2	foot step	2	2	n/a	1	n/a
88.5727898000041	0	2	foot step	4	4	n/a	1	n/a
89.0927897999936	0	2	foot step	1	1	n/a	1	n/a
90.7000000000116	5	2	stimulus	n/a	n/a	white X	1	n/a
97.7000000000116	24.02	3	stimulus	n/a	n/a	white X	1	n/a
121.718219599978	9.5081900000223	3	stimulus	n/a	n/a	red X	1	n/a
122.798219599965	0	3	foot step	2	2	n/a	1	n/a
123.38821959999	0	3	foot step	1	1	n/a	1	n/a
124.018219599966	0	3	foot step	2	2	n/a	1	n/a
124.678219599969	0	3	foot step	3	3	n/a	1	n/a
125.40821959998	0	3	foot step	2	2	n/a	1	n/a
125.948219599988	0	3	foot step	1	1	n/a	1	n/a
126.65821959998	0	3	foot step	3	3	n/a	1	n/a
127.38821959999	0	3	foot step	2	2	n/a	1	n/a
128.088219599973	0	3	foot step	4	4	n/a	1	n/a
128.758219599986	0	3	foot step	2	2	n/a	1	n/a
129.38821959999	0	3	foot step	4	4	n/a	1	n/a
129.958219599968	0	3	foot step	1	1	n/a	1	n/a
131.220000000001	5	3	stimulus	n/a	n/a	white X	1	n/a
137.420000000013	24.02	4	stimulus	n/a	n/a	white X	1	n/a
161.43889249998	9.50692340001115	4	stimulus	n/a	n/a	red X	1	n/a
162.44889249999	0	4	foot step	2	2	n/a	1	n/a
162.988892499969	0	4	foot step	1	1	n/a	1	n/a
163.648892499972	0	4	foot step	2	2	n/a	1	n/a
164.258892499987	0	4	foot step	3	3	n/a	1	n/a
164.968892499979	0	4	foot step	2	2	n/a	1	n/a
165.548892499966	0	4	foot step	1	1	n/a	1	n/a
166.078892499994	0	4	foot step	3	3	n/a	1	n/a
166.768892499967	0	4	foot step	2	2	n/a	1	n/a
167.368892499973	0	4	foot step	4	4	n/a	1	n/a
168.028892499977	0	4	foot step	2	2	n/a	1	n/a
168.628892499983	0	4	foot step	4	4	n/a	1	n/a
169.20889249997	0	4	foot step	1	1	n/a	1	n/a
170.940000000002	5	4	stimulus	n/a	n/a	white X	1	n/a
176.880000000005	24	5	stimulus	n/a	n/a	white X	1	n/a
200.890143900004	9.50952359999064	5	stimulus	n/a	n/a	red X	1	n/a
201.930143900012	0	5	foot step	2	2	n/a	1	n/a
202.49014390001	0	5	foot step	1	1	n/a	1	n/a
203.160143899993	0	5	foot step	2	2	n/a	1	n/a
203.860143900005	0	5	foot step	3	3	n/a	1	n/a
204.610143900005	0	5	foot step	2	2	n/a	1	n/a
205.210143900011	0	5	foot step	1	1	n/a	1	n/a
205.7301439	0	5	foot step	3	3	n/a	1	n/a
206.510143899999	0	5	foot step	2	2	n/a	1	n/a
207.180143900012	0	5	foot step	4	4	n/a	1	n/a
207.850143899996	0	5	foot step	2	2	n/a	1	n/a
208.450143900001	0	5	foot step	4	4	n/a	1	n/a
209.00014389999	0	5	foot step	1	1	n/a	1	n/a
210.399999999994	5	5	stimulus	n/a	n/a	white X	1	n/a
216.299999999988	22	6	stimulus	n/a	n/a	white X	1	n/a
238.312125500001	9.50810119998641	6	stimulus	n/a	n/a	red X	1	n/a
239.282125500002	0	6	foot step	2	2	n/a	1	n/a
239.892125499988	0	6	foot step	1	1	n/a	1	n/a
240.642125499988	0	6	foot step	2	2	n/a	1	n/a
241.372125499998	0	6	foot step	3	3	n/a	1	n/a
242.062125500001	0	6	foot step	2	2	n/a	1	n/a
242.652125499997	0	6	foot step	1	1	n/a	1	n/a
243.242125499994	0	6	foot step	3	3	n/a	1	n/a
243.942125500005	0	6	foot step	2	2	n/a	1	n/a
244.552125499991	0	6	foot step	4	4	n/a	1	n/a
245.192125500005	0	6	foot step	2	2	n/a	1	n/a
245.792125500011	0	6	foot step	4	4	n/a	1	n/a
246.33212549999	0	6	foot step	1	1	n/a	1	n/a
247.820000000007	5	6	stimulus	n/a	n/a	white X	1	n/a
253.799999999988	24.02	7	stimulus	n/a	n/a	white X	1	n/a
277.815926299983	9.50760000001173	7	stimulus	n/a	n/a	red X	1	n/a
278.685926299979	0	7	foot step	2	2	n/a	1	n/a
279.255926299986	0	7	foot step	1	1	n/a	1	n/a
279.915926299989	0	7	foot step	2	2	n/a	1	n/a
280.595926299982	0	7	foot step	3	3	n/a	1	n/a
281.295926299994	0	7	foot step	2	2	n/a	1	n/a
281.825926299993	0	7	foot step	1	1	n/a	1	n/a
282.505926299986	0	7	foot step	3	3	n/a	1	n/a
283.235926299996	0	7	foot step	2	2	n/a	1	n/a
283.865926299972	0	7	foot step	4	4	n/a	1	n/a
284.465926299978	0	7	foot step	2	2	n/a	1	n/a
285.055926299974	0	7	foot step	4	4	n/a	1	n/a
285.545926299994	0	7	foot step	1	1	n/a	1	n/a
287.320000000007	5	7	stimulus	n/a	n/a	white X	1	n/a
293.140000000014	21	8	stimulus	n/a	n/a	white X	1	n/a
314.154747399996	9.50708609999856	8	stimulus	n/a	n/a	red X	1	n/a
315.04474740001	0	8	foot step	2	2	n/a	1	n/a
315.604747400008	0	8	foot step	1	1	n/a	1	n/a
316.264747399982	0	8	foot step	2	2	n/a	1	n/a
316.924747399986	0	8	foot step	3	3	n/a	1	n/a
317.614747399988	0	8	foot step	2	2	n/a	1	n/a
318.134747400007	0	8	foot step	1	1	n/a	1	n/a
318.734747399983	0	8	foot step	3	3	n/a	1	n/a
319.444747400004	0	8	foot step	2	2	n/a	1	n/a
320.074747400009	0	8	foot step	4	4	n/a	1	n/a
320.694747400004	0	8	foot step	2	2	n/a	1	n/a
321.29474740001	0	8	foot step	4	4	n/a	1	n/a
321.854747400008	0	8	foot step	1	1	n/a	1	n/a
323.640000000014	5	8	stimulus	n/a	n/a	white X	1	n/a
329.48000000001	24.02	9	stimulus	n/a	n/a	white X	1	n/a
353.507994399988	9.50949789999868	9	stimulus	n/a	n/a	red X	1	n/a
354.477994399989	0	9	foot step	2	2	n/a	1	n/a
355.027994399978	0	9	foot step	1	1	n/a	1	n/a
355.727994399989	0	9	foot step	2	2	n/a	1	n/a
356.397994400002	0	9	foot step	3	3	n/a	1	n/a
357.117994399974	0	9	foot step	2	2	n/a	1	n/a
357.667994399992	0	9	foot step	1	1	n/a	1	n/a
358.267994399997	0	9	foot step	3	3	n/a	1	n/a
358.977994399989	0	9	foot step	2	2	n/a	1	n/a
359.577994399995	0	9	foot step	4	4	n/a	1	n/a
360.21799439998	0	9	foot step	2	2	n/a	1	n/a
360.807994399976	0	9	foot step	4	4	n/a	1	n/a
361.347994399985	0	9	foot step	1	1	n/a	1	n/a
363	5	9	stimulus	n/a	n/a	white X	1	n/a
368.940000000002	21	10	stimulus	n/a	n/a	white X	1	n/a
389.962452899985	9.50645000001532	10	stimulus	n/a	n/a	red X	1	n/a
390.942452899995	0	10	foot step	2	2	n/a	1	n/a
391.522452899982	0	10	foot step	1	1	n/a	1	n/a
392.142452899978	0	10	foot step	2	2	n/a	1	n/a
392.772452899982	0	10	foot step	3	3	n/a	1	n/a
393.402452899987	0	10	foot step	2	2	n/a	1	n/a
393.932452899986	0	10	foot step	1	1	n/a	1	n/a
394.502452899993	0	10	foot step	3	3	n/a	1	n/a
395.282452899992	0	10	foot step	2	2	n/a	1	n/a
395.912452899996	0	10	foot step	4	4	n/a	1	n/a
396.502452899993	0	10	foot step	2	2	n/a	1	n/a
397.062452899991	0	10	foot step	4	4	n/a	1	n/a
397.612452899979	0	10	foot step	1	1	n/a	1	n/a
399.459999999992	5	10	stimulus	n/a	n/a	white X	1	n/a
405.720000000001	22.02	11	stimulus	n/a	n/a	white X	1	n/a
427.745353699982	9.50787370000035	11	stimulus	n/a	n/a	red X	1	n/a
428.79535369997	0	11	foot step	2	2	n/a	1	n/a
429.345353699988	0	11	foot step	1	1	n/a	1	n/a
429.995353699982	0	11	foot step	2	2	n/a	1	n/a
430.665353699995	0	11	foot step	3	3	n/a	1	n/a
431.355353699968	0	11	foot step	2	2	n/a	1	n/a
431.905353699985	0	11	foot step	1	1	n/a	1	n/a
432.455353699974	0	11	foot step	3	3	n/a	1	n/a
433.275353699981	0	11	foot step	2	2	n/a	1	n/a
433.905353699985	0	11	foot step	4	4	n/a	1	n/a
434.55535369998	0	11	foot step	2	2	n/a	1	n/a
435.145353699976	0	11	foot step	4	4	n/a	1	n/a
435.625353699987	0	11	foot step	1	1	n/a	1	n/a
437.239999999991	5	11	stimulus	n/a	n/a	white X	1	n/a
