onset	duration	trial_type	Object_Cond	Validity_Cond	Obj_Accuracy	Obj_Acc_RT	Subseq_Recog	Subseq_Recog_RT	Subseq_Source_Mem_Acc	Subseq_Source_Mem_Acc_RT
4.001	1.000	Valid Other Obj Cue: valid cue where following stimulus was an untested or no response object	OBJ	V	1	0.644	UT	UT	UT	UT
8.001	0.500	Valid Other Obj: stimulus that was an untested or no response object and that followed a valid cue	OBJ	V	1	0.644	UT	UT	UT	UT
10.002	1.000	Valid Miss Cue: valid cue where following object was a subsequent miss	OBJ	V	1	0.660	LC-MISS	 3.9172	UT	UT
16.002	0.500	Valid Miss Obj: object that was a subsequent miss and that followed a valid cue	OBJ	V	1	0.660	LC-MISS	 3.9172	UT	UT
18.001	1.000	Valid Other Greeble Cue: valid cue where following stimulus was an untested or no response greeble	GRE	V	1	0.855	UT	UT	UT	UT
22.001	0.500	Valid Other Greeble: stimulus that was an untested or no response greeble and that followed a valid cue	GRE	V	1	0.855	UT	UT	UT	UT
24.001	1.000	Valid LC-Hit Cue: valid cue where following object was a subsequent low confidence hit	OBJ	V	1	0.629	LC-HIT	 1.4982	0	0.43884
30.001	0.500	Valid LC-Hit Obj: object that was a subsequent low confidence hit and that followed a valid cue	OBJ	V	1	0.629	LC-HIT	 1.4982	0	0.43884
32.001	1.000	Invalid LC-Hit Cue: invalid cue where following object was a subsequent low confidence hit	OBJ	NV	1	0.880	LC-HIT	 1.2285	1	0.071941
34.001	0.500	Invalid LC-Hit Obj: object that was a subsequent low confidence hit and that followed an invalid cue	OBJ	NV	1	0.880	LC-HIT	 1.2285	1	0.071941
38.001	1.000	Valid Other Greeble Cue: valid cue where following stimulus was an untested or no response greeble	GRE	V	1	0.887	UT	UT	UT	UT
44.001	0.500	Valid Other Greeble: stimulus that was an untested or no response greeble and that followed a valid cue	GRE	V	1	0.887	UT	UT	UT	UT
46.002	1.000	Valid Miss Cue: valid cue where following object was a subsequent miss	OBJ	V	1	0.882	LC-MISS	 2.1457	UT	UT
48.002	0.500	Valid Miss Obj: object that was a subsequent miss and that followed a valid cue	OBJ	V	1	0.882	LC-MISS	 2.1457	UT	UT
50.001	1.000	Invalid LC-Hit Cue: invalid cue where following object was a subsequent low confidence hit	OBJ	NV	1	0.857	LC-HIT	 1.4737	1	0.33944
56.001	0.500	Invalid LC-Hit Obj: object that was a subsequent low confidence hit and that followed an invalid cue	OBJ	NV	1	0.857	LC-HIT	 1.4737	1	0.33944
58.001	1.000	Valid Other Greeble Cue: valid cue where following stimulus was an untested or no response greeble	GRE	V	1	0.789	UT	UT	UT	UT
60.001	0.500	Valid Other Greeble: stimulus that was an untested or no response greeble and that followed a valid cue	GRE	V	1	0.789	UT	UT	UT	UT
62.001	1.000	Valid HC-Hit Cue: valid cue where following object was a subsequent high confidence hit	OBJ	V	1	0.720	HC-HIT	0.94895	1	0.17359
66.001	0.500	Valid HC-Hit Obj: object that was a subsequent high confidence hit and that followed a valid cue	OBJ	V	1	0.720	HC-HIT	0.94895	1	0.17359
68.001	1.000	Invalid Other Greeble Cue: invalid cue where following stimulus was an untested or no response greeble	GRE	NV	1	0.664	UT	UT	UT	UT
72.001	0.500	Invalid Other Greeble: stimulus that was an untested or no response greeble and that followed a invalid cue	GRE	NV	1	0.664	UT	UT	UT	UT
74.001	1.000	Valid Other Greeble Cue: valid cue where following stimulus was an untested or no response greeble	GRE	V	1	0.829	UT	UT	UT	UT
76.001	0.500	Valid Other Greeble: stimulus that was an untested or no response greeble and that followed a valid cue	GRE	V	1	0.829	UT	UT	UT	UT
78.002	1.000	Valid Miss Cue: valid cue where following object was a subsequent miss	OBJ	V	1	0.761	LC-MISS	 2.9942	UT	UT
80.002	0.500	Valid Miss Obj: object that was a subsequent miss and that followed a valid cue	OBJ	V	1	0.761	LC-MISS	 2.9942	UT	UT
82.002	1.000	Valid Other Greeble Cue: valid cue where following stimulus was an untested or no response greeble	GRE	V	1	0.800	UT	UT	UT	UT
88.002	0.500	Valid Other Greeble: stimulus that was an untested or no response greeble and that followed a valid cue	GRE	V	1	0.800	UT	UT	UT	UT
90.002	1.000	Valid HC-Hit Cue: valid cue where following object was a subsequent high confidence hit	OBJ	V	1	0.921	HC-HIT	 1.2135	1	0.11198
94.002	0.500	Valid HC-Hit Obj: object that was a subsequent high confidence hit and that followed a valid cue	OBJ	V	1	0.921	HC-HIT	 1.2135	1	0.11198
96.001	1.000	Valid Other Greeble Cue: valid cue where following stimulus was an untested or no response greeble	GRE	V	1	0.718	UT	UT	UT	UT
98.001	0.500	Valid Other Greeble: stimulus that was an untested or no response greeble and that followed a valid cue	GRE	V	1	0.718	UT	UT	UT	UT
100.002	1.000	Valid HC-Hit Cue: valid cue where following object was a subsequent high confidence hit	OBJ	V	1	0.681	HC-HIT	0.76745	NR	NR
102.002	0.500	Valid HC-Hit Obj: object that was a subsequent high confidence hit and that followed a valid cue	OBJ	V	1	0.681	HC-HIT	0.76745	NR	NR
104.001	1.000	Valid HC-Hit Cue: valid cue where following object was a subsequent high confidence hit	OBJ	V	1	0.715	HC-HIT	 2.0615	NR	NR
108.001	0.500	Valid HC-Hit Obj: object that was a subsequent high confidence hit and that followed a valid cue	OBJ	V	1	0.715	HC-HIT	 2.0615	NR	NR
110.001	1.000	Valid Miss Cue: valid cue where following object was a subsequent miss	OBJ	V	1	0.731	LC-MISS	0.84497	UT	UT
116.001	0.500	Valid Miss Obj: object that was a subsequent miss and that followed a valid cue	OBJ	V	1	0.731	LC-MISS	0.84497	UT	UT
118.001	1.000	Invalid Miss Cue: invalid cue where following object was a subsequent miss	OBJ	NV	1	1.006	LC-MISS	0.90438	UT	UT
120.001	0.500	Invalid Miss Obj: object that was a subsequent miss and that followed an invalid cue	OBJ	NV	1	1.006	LC-MISS	0.90438	UT	UT
122.001	1.000	Valid LC-Hit Cue: valid cue where following object was a subsequent low confidence hit	OBJ	V	1	0.835	LC-HIT	 2.6437	1	0.55046
124.001	0.500	Valid LC-Hit Obj: object that was a subsequent low confidence hit and that followed a valid cue	OBJ	V	1	0.835	LC-HIT	 2.6437	1	0.55046
126.002	1.000	Valid Other Greeble Cue: valid cue where following stimulus was an untested or no response greeble	GRE	V	1	0.883	UT	UT	UT	UT
132.002	0.500	Valid Other Greeble: stimulus that was an untested or no response greeble and that followed a valid cue	GRE	V	1	0.883	UT	UT	UT	UT
134.001	1.000	Valid Miss Cue: valid cue where following object was a subsequent miss	OBJ	V	1	0.878	LC-MISS	0.80944	UT	UT
136.001	0.500	Valid Miss Obj: object that was a subsequent miss and that followed a valid cue	OBJ	V	1	0.878	LC-MISS	0.80944	UT	UT
138.001	1.000	Valid Miss Cue: valid cue where following object was a subsequent miss	OBJ	V	1	0.721	LC-MISS	 1.2769	UT	UT
140.001	0.500	Valid Miss Obj: object that was a subsequent miss and that followed a valid cue	OBJ	V	1	0.721	LC-MISS	 1.2769	UT	UT
142.001	1.000	Valid Other Greeble Cue: valid cue where following stimulus was an untested or no response greeble	GRE	V	1	0.741	UT	UT	UT	UT
144.001	0.500	Valid Other Greeble: stimulus that was an untested or no response greeble and that followed a valid cue	GRE	V	1	0.741	UT	UT	UT	UT
146.001	1.000	Invalid Miss Cue: invalid cue where following object was a subsequent miss	OBJ	NV	1	0.712	LC-MISS	 2.3388	UT	UT
148.001	0.500	Invalid Miss Obj: object that was a subsequent miss and that followed an invalid cue	OBJ	NV	1	0.712	LC-MISS	 2.3388	UT	UT
154.002	1.000	Valid LC-Hit Cue: valid cue where following object was a subsequent low confidence hit	OBJ	V	1	0.679	LC-HIT	0.91904	0	0.26591
158.002	0.500	Valid LC-Hit Obj: object that was a subsequent low confidence hit and that followed a valid cue	OBJ	V	1	0.679	LC-HIT	0.91904	0	0.26591
162.001	1.000	Valid Other Greeble Cue: valid cue where following stimulus was an untested or no response greeble	GRE	V	1	0.853	UT	UT	UT	UT
168.001	0.500	Valid Other Greeble: stimulus that was an untested or no response greeble and that followed a valid cue	GRE	V	1	0.853	UT	UT	UT	UT
170.001	1.000	Valid LC-Hit Cue: valid cue where following object was a subsequent low confidence hit	OBJ	V	1	0.756	LC-HIT	 2.3017	0	0.2258
176.001	0.500	Valid LC-Hit Obj: object that was a subsequent low confidence hit and that followed a valid cue	OBJ	V	1	0.756	LC-HIT	 2.3017	0	0.2258
178.002	1.000	Valid LC-Hit Cue: valid cue where following object was a subsequent low confidence hit	OBJ	V	1	0.670	LC-HIT	 1.8965	0	0.52398
182.002	0.500	Valid LC-Hit Obj: object that was a subsequent low confidence hit and that followed a valid cue	OBJ	V	1	0.670	LC-HIT	 1.8965	0	0.52398
184.002	1.000	Valid Other Obj Cue: valid cue where following stimulus was an untested or no response object	OBJ	V	1	1.222	UT	UT	UT	UT
190.002	0.500	Valid Other Obj: stimulus that was an untested or no response object and that followed a valid cue	OBJ	V	1	1.222	UT	UT	UT	UT
192.001	1.000	Valid Other Greeble Cue: valid cue where following stimulus was an untested or no response greeble	GRE	V	1	0.842	UT	UT	UT	UT
194.001	0.500	Valid Other Greeble: stimulus that was an untested or no response greeble and that followed a valid cue	GRE	V	1	0.842	UT	UT	UT	UT
196.001	1.000	Invalid Miss Cue: invalid cue where following object was a subsequent miss	OBJ	NV	1	0.907	LC-MISS	 2.1592	UT	UT
200.001	0.500	Invalid Miss Obj: object that was a subsequent miss and that followed an invalid cue	OBJ	NV	1	0.907	LC-MISS	 2.1592	UT	UT
202.001	1.000	Valid Other Obj Cue: valid cue where following stimulus was an untested or no response object	OBJ	V	1	0.806	UT	UT	UT	UT
204.001	0.500	Valid Other Obj: stimulus that was an untested or no response object and that followed a valid cue	OBJ	V	1	0.806	UT	UT	UT	UT
206.001	1.000	Valid Other Greeble Cue: valid cue where following stimulus was an untested or no response greeble	GRE	V	0	0.867	UT	UT	UT	UT
208.001	0.500	Valid Other Greeble: stimulus that was an untested or no response greeble and that followed a valid cue	GRE	V	0	0.867	UT	UT	UT	UT
210.001	1.000	Valid Other Greeble Cue: valid cue where following stimulus was an untested or no response greeble	GRE	V	1	1.090	UT	UT	UT	UT
216.001	0.500	Valid Other Greeble: stimulus that was an untested or no response greeble and that followed a valid cue	GRE	V	1	1.090	UT	UT	UT	UT
218.001	1.000	Valid Miss Cue: valid cue where following object was a subsequent miss	OBJ	V	1	1.003	LC-MISS	  1.511	UT	UT
222.001	0.500	Valid Miss Obj: object that was a subsequent miss and that followed a valid cue	OBJ	V	1	1.003	LC-MISS	  1.511	UT	UT
224.001	1.000	Valid LC-Hit Cue: valid cue where following object was a subsequent low confidence hit	OBJ	V	1	0.829	LC-HIT	 1.6016	0	0.50695
228.001	0.500	Valid LC-Hit Obj: object that was a subsequent low confidence hit and that followed a valid cue	OBJ	V	1	0.829	LC-HIT	 1.6016	0	0.50695
230.002	1.000	Valid Miss Cue: valid cue where following object was a subsequent miss	OBJ	V	1	0.839	LC-MISS	0.70389	UT	UT
234.002	0.500	Valid Miss Obj: object that was a subsequent miss and that followed a valid cue	OBJ	V	1	0.839	LC-MISS	0.70389	UT	UT
240.002	n/a	n/a	OBJ	NV	1	0.994	NR	NR	UT	UT
246.002	n/a	n/a	OBJ	NV	1	0.994	NR	NR	UT	UT
250.002	1.000	Valid Miss Cue: valid cue where following object was a subsequent miss	OBJ	V	1	0.940	LC-MISS	 1.3138	UT	UT
252.002	0.500	Valid Miss Obj: object that was a subsequent miss and that followed a valid cue	OBJ	V	1	0.940	LC-MISS	 1.3138	UT	UT
256.001	1.000	Valid HC-Hit Cue: valid cue where following object was a subsequent high confidence hit	OBJ	V	1	0.603	HC-HIT	 1.2289	0	0.3559
262.001	0.500	Valid HC-Hit Obj: object that was a subsequent high confidence hit and that followed a valid cue	OBJ	V	1	0.603	HC-HIT	 1.2289	0	0.3559
264.001	1.000	Valid LC-Hit Cue: valid cue where following object was a subsequent low confidence hit	OBJ	V	1	1.003	LC-HIT	 1.0641	1	0.2211
268.001	0.500	Valid LC-Hit Obj: object that was a subsequent low confidence hit and that followed a valid cue	OBJ	V	1	1.003	LC-HIT	 1.0641	1	0.2211
270.002	1.000	Valid Other Greeble Cue: valid cue where following stimulus was an untested or no response greeble	GRE	V	1	1.044	UT	UT	UT	UT
274.002	0.500	Valid Other Greeble: stimulus that was an untested or no response greeble and that followed a valid cue	GRE	V	1	1.044	UT	UT	UT	UT
276.001	1.000	Invalid HC-Hit Cue: invalid cue where following object was a subsequent high confidence hit	OBJ	NV	1	0.727	HC-HIT	  1.687	0	0.46216
280.001	0.500	Invalid HC-Hit Obj: object that was a subsequent high confidence hit and that followed an invalid cue	OBJ	NV	1	0.727	HC-HIT	  1.687	0	0.46216
284.001	1.000	Valid Miss Cue: valid cue where following object was a subsequent miss	OBJ	V	1	0.884	LC-MISS	0.78739	UT	UT
290.001	0.500	Valid Miss Obj: object that was a subsequent miss and that followed a valid cue	OBJ	V	1	0.884	LC-MISS	0.78739	UT	UT
292.002	1.000	Valid Other Obj Cue: valid cue where following stimulus was an untested or no response object	OBJ	V	1	0.811	UT	UT	UT	UT
298.002	0.500	Valid Other Obj: stimulus that was an untested or no response object and that followed a valid cue	OBJ	V	1	0.811	UT	UT	UT	UT
300.002	1.000	Valid Miss Cue: valid cue where following object was a subsequent miss	OBJ	V	1	1.005	HC-MISS	 1.2512	UT	UT
304.002	0.500	Valid Miss Obj: object that was a subsequent miss and that followed a valid cue	OBJ	V	1	1.005	HC-MISS	 1.2512	UT	UT
308.002	1.000	Valid LC-Hit Cue: valid cue where following object was a subsequent low confidence hit	OBJ	V	1	1.184	LC-HIT	 3.0324	1	2.2258
310.002	0.500	Valid LC-Hit Obj: object that was a subsequent low confidence hit and that followed a valid cue	OBJ	V	1	1.184	LC-HIT	 3.0324	1	2.2258
314.001	1.000	Valid Other Greeble Cue: valid cue where following stimulus was an untested or no response greeble	GRE	V	1	0.975	UT	UT	UT	UT
318.001	0.500	Valid Other Greeble: stimulus that was an untested or no response greeble and that followed a valid cue	GRE	V	1	0.975	UT	UT	UT	UT
320.001	1.000	Valid Other Obj Cue: valid cue where following stimulus was an untested or no response object	OBJ	V	1	0.607	UT	UT	UT	UT
326.001	0.500	Valid Other Obj: stimulus that was an untested or no response object and that followed a valid cue	OBJ	V	1	0.607	UT	UT	UT	UT
330.002	1.000	Invalid HC-Hit Cue: invalid cue where following object was a subsequent high confidence hit	OBJ	NV	1	1.141	HC-HIT	 1.3877	1	0.34251
334.002	0.500	Invalid HC-Hit Obj: object that was a subsequent high confidence hit and that followed an invalid cue	OBJ	NV	1	1.141	HC-HIT	 1.3877	1	0.34251
336.001	1.000	Valid HC-Hit Cue: valid cue where following object was a subsequent high confidence hit	OBJ	V	1	0.787	HC-HIT	  1.262	1	0.13565
338.001	0.500	Valid HC-Hit Obj: object that was a subsequent high confidence hit and that followed a valid cue	OBJ	V	1	0.787	HC-HIT	  1.262	1	0.13565
340.002	1.000	Invalid Other Greeble Cue: invalid cue where following stimulus was an untested or no response greeble	GRE	NV	1	0.985	UT	UT	UT	UT
346.002	0.500	Invalid Other Greeble: stimulus that was an untested or no response greeble and that followed a invalid cue	GRE	NV	1	0.985	UT	UT	UT	UT
350.001	1.000	Valid HC-Hit Cue: valid cue where following object was a subsequent high confidence hit	OBJ	V	1	0.791	HC-HIT	 1.9608	1	0.16322
356.001	0.500	Valid HC-Hit Obj: object that was a subsequent high confidence hit and that followed a valid cue	OBJ	V	1	0.791	HC-HIT	 1.9608	1	0.16322
360.001	1.000	Valid LC-Hit Cue: valid cue where following object was a subsequent low confidence hit	OBJ	V	1	0.870	LC-HIT	 1.1729	0	0.16398
364.001	0.500	Valid LC-Hit Obj: object that was a subsequent low confidence hit and that followed a valid cue	OBJ	V	1	0.870	LC-HIT	 1.1729	0	0.16398
