onset	duration	trial_type	Object_Cond	Validity_Cond	Obj_Accuracy	Obj_Acc_RT	Subseq_Recog	Subseq_Recog_RT	Subseq_Source_Mem_Acc	Subseq_Source_Mem_Acc_RT
4.001	1.000	Valid Other Obj Cue: valid cue where following stimulus was an untested or no response object	OBJ	V	1	 0.6056	UT	UT	UT	UT
6.001	0.500	Valid Other Obj: stimulus that was an untested or no response object and that followed a valid cue	OBJ	V	1	 0.6056	UT	UT	UT	UT
8.001	1.000	Invalid Miss Cue: invalid cue where following object was a subsequent miss	OBJ	NV	1	0.86052	LC-MISS	 1.6576	UT	UT
14.001	0.500	Invalid Miss Obj: object that was a subsequent miss and that followed an invalid cue	OBJ	NV	1	0.86052	LC-MISS	 1.6576	UT	UT
16.002	1.000	Valid LC-Hit Cue: valid cue where following object was a subsequent low confidence hit	OBJ	V	1	0.90248	LC-HIT	  2.088	1	0.10598
20.002	0.500	Valid LC-Hit Obj: object that was a subsequent low confidence hit and that followed a valid cue	OBJ	V	1	0.90248	LC-HIT	  2.088	1	0.10598
22.002	1.000	Valid Other Greeble Cue: valid cue where following stimulus was an untested or no response greeble	GRE	V	1	 0.8838	UT	UT	UT	UT
24.002	0.500	Valid Other Greeble: stimulus that was an untested or no response greeble and that followed a valid cue	GRE	V	1	 0.8838	UT	UT	UT	UT
26.001	1.000	Valid Other Obj Cue: valid cue where following stimulus was an untested or no response object	OBJ	V	1	0.76474	UT	UT	UT	UT
30.001	0.500	Valid Other Obj: stimulus that was an untested or no response object and that followed a valid cue	OBJ	V	1	0.76474	UT	UT	UT	UT
32.001	1.000	Valid LC-Hit Cue: valid cue where following object was a subsequent low confidence hit	OBJ	V	1	0.65413	LC-HIT	0.94985	1	0.1139
36.001	0.500	Valid LC-Hit Obj: object that was a subsequent low confidence hit and that followed a valid cue	OBJ	V	1	0.65413	LC-HIT	0.94985	1	0.1139
40.001	1.000	Invalid Miss Cue: invalid cue where following object was a subsequent miss	OBJ	NV	1	 1.0481	LC-MISS	  2.499	UT	UT
42.001	0.500	Invalid Miss Obj: object that was a subsequent miss and that followed an invalid cue	OBJ	NV	1	 1.0481	LC-MISS	  2.499	UT	UT
44.002	1.000	Valid Other Obj Cue: valid cue where following stimulus was an untested or no response object	OBJ	V	1	0.81813	UT	UT	UT	UT
48.002	0.500	Valid Other Obj: stimulus that was an untested or no response object and that followed a valid cue	OBJ	V	1	0.81813	UT	UT	UT	UT
50.002	1.000	Valid Other Greeble Cue: valid cue where following stimulus was an untested or no response greeble	GRE	V	1	  1.454	UT	UT	UT	UT
52.002	0.500	Valid Other Greeble: stimulus that was an untested or no response greeble and that followed a valid cue	GRE	V	1	  1.454	UT	UT	UT	UT
54.001	1.000	Valid Other Greeble Cue: valid cue where following stimulus was an untested or no response greeble	GRE	V	1	0.66183	UT	UT	UT	UT
60.001	0.500	Valid Other Greeble: stimulus that was an untested or no response greeble and that followed a valid cue	GRE	V	1	0.66183	UT	UT	UT	UT
62.001	1.000	Valid Miss Cue: valid cue where following object was a subsequent miss	OBJ	V	1	 0.7263	LC-MISS	 1.1495	UT	UT
66.001	0.500	Valid Miss Obj: object that was a subsequent miss and that followed a valid cue	OBJ	V	1	 0.7263	LC-MISS	 1.1495	UT	UT
68.001	1.000	Invalid Miss Cue: invalid cue where following object was a subsequent miss	OBJ	NV	1	0.99173	LC-MISS	 1.0409	UT	UT
72.001	0.500	Invalid Miss Obj: object that was a subsequent miss and that followed an invalid cue	OBJ	NV	1	0.99173	LC-MISS	 1.0409	UT	UT
74.001	1.000	Valid Other Greeble Cue: valid cue where following stimulus was an untested or no response greeble	GRE	V	1	0.66046	UT	UT	UT	UT
76.001	0.500	Valid Other Greeble: stimulus that was an untested or no response greeble and that followed a valid cue	GRE	V	1	0.66046	UT	UT	UT	UT
78.001	1.000	Valid Miss Cue: valid cue where following object was a subsequent miss	OBJ	V	1	0.63577	LC-MISS	 1.7898	UT	UT
84.001	0.500	Valid Miss Obj: object that was a subsequent miss and that followed a valid cue	OBJ	V	1	0.63577	LC-MISS	 1.7898	UT	UT
86.001	1.000	Valid Other Greeble Cue: valid cue where following stimulus was an untested or no response greeble	GRE	V	1	0.62167	UT	UT	UT	UT
90.001	0.500	Valid Other Greeble: stimulus that was an untested or no response greeble and that followed a valid cue	GRE	V	1	0.62167	UT	UT	UT	UT
92.001	1.000	Invalid Other Greeble Cue: invalid cue where following stimulus was an untested or no response greeble	GRE	NV	1	0.69273	UT	UT	UT	UT
98.001	0.500	Invalid Other Greeble: stimulus that was an untested or no response greeble and that followed a invalid cue	GRE	NV	1	0.69273	UT	UT	UT	UT
102.001	1.000	Valid HC-Hit Cue: valid cue where following object was a subsequent high confidence hit	OBJ	V	1	0.75031	HC-HIT	 1.1896	0	0.15411
104.001	0.500	Valid HC-Hit Obj: object that was a subsequent high confidence hit and that followed a valid cue	OBJ	V	1	0.75031	HC-HIT	 1.1896	0	0.15411
106.002	1.000	Valid HC-Hit Cue: valid cue where following object was a subsequent high confidence hit	OBJ	V	1	 1.0978	HC-HIT	 2.3125	0	0.22804
108.002	0.500	Valid HC-Hit Obj: object that was a subsequent high confidence hit and that followed a valid cue	OBJ	V	1	 1.0978	HC-HIT	 2.3125	0	0.22804
112.001	1.000	Valid LC-Hit Cue: valid cue where following object was a subsequent low confidence hit	OBJ	V	1	0.70668	LC-HIT	 1.1267	1	0.49473
116.001	0.500	Valid LC-Hit Obj: object that was a subsequent low confidence hit and that followed a valid cue	OBJ	V	1	0.70668	LC-HIT	 1.1267	1	0.49473
122.002	1.000	Invalid Miss Cue: invalid cue where following object was a subsequent miss	OBJ	NV	1	0.72621	LC-MISS	 1.5708	UT	UT
128.002	0.500	Invalid Miss Obj: object that was a subsequent miss and that followed an invalid cue	OBJ	NV	1	0.72621	LC-MISS	 1.5708	UT	UT
132.001	1.000	Valid Other Greeble Cue: valid cue where following stimulus was an untested or no response greeble	GRE	V	1	0.80404	UT	UT	UT	UT
138.001	0.500	Valid Other Greeble: stimulus that was an untested or no response greeble and that followed a valid cue	GRE	V	1	0.80404	UT	UT	UT	UT
140.002	1.000	Invalid LC-Hit Cue: invalid cue where following object was a subsequent low confidence hit	OBJ	NV	1	0.72673	LC-HIT	 1.4924	0	0.39391
142.002	0.500	Invalid LC-Hit Obj: object that was a subsequent low confidence hit and that followed an invalid cue	OBJ	NV	1	0.72673	LC-HIT	 1.4924	0	0.39391
148.001	1.000	Valid Other Greeble Cue: valid cue where following stimulus was an untested or no response greeble	GRE	V	1	0.73442	UT	UT	UT	UT
150.001	0.500	Valid Other Greeble: stimulus that was an untested or no response greeble and that followed a valid cue	GRE	V	1	0.73442	UT	UT	UT	UT
152.002	1.000	Valid Miss Cue: valid cue where following object was a subsequent miss	OBJ	V	1	  0.895	LC-MISS	  1.346	UT	UT
158.002	0.500	Valid Miss Obj: object that was a subsequent miss and that followed a valid cue	OBJ	V	1	  0.895	LC-MISS	  1.346	UT	UT
160.001	1.000	Valid LC-Hit Cue: valid cue where following object was a subsequent low confidence hit	OBJ	V	1	0.70403	LC-HIT	 2.5112	1	0.087985
164.001	0.500	Valid LC-Hit Obj: object that was a subsequent low confidence hit and that followed a valid cue	OBJ	V	1	0.70403	LC-HIT	 2.5112	1	0.087985
166.001	1.000	Valid Other Greeble Cue: valid cue where following stimulus was an untested or no response greeble	GRE	V	1	0.65537	UT	UT	UT	UT
172.001	0.500	Valid Other Greeble: stimulus that was an untested or no response greeble and that followed a valid cue	GRE	V	1	0.65537	UT	UT	UT	UT
174.001	1.000	Valid Miss Cue: valid cue where following object was a subsequent miss	OBJ	V	1	0.85677	LC-MISS	 1.0136	UT	UT
178.001	0.500	Valid Miss Obj: object that was a subsequent miss and that followed a valid cue	OBJ	V	1	0.85677	LC-MISS	 1.0136	UT	UT
180.001	1.000	Invalid Miss Cue: invalid cue where following object was a subsequent miss	OBJ	NV	1	0.72437	LC-MISS	 1.5078	UT	UT
182.001	0.500	Invalid Miss Obj: object that was a subsequent miss and that followed an invalid cue	OBJ	NV	1	0.72437	LC-MISS	 1.5078	UT	UT
186.002	1.000	Valid Miss Cue: valid cue where following object was a subsequent miss	OBJ	V	1	0.86169	LC-MISS	 1.0411	UT	UT
188.002	0.500	Valid Miss Obj: object that was a subsequent miss and that followed a valid cue	OBJ	V	1	0.86169	LC-MISS	 1.0411	UT	UT
190.001	1.000	Valid Other Greeble Cue: valid cue where following stimulus was an untested or no response greeble	GRE	V	1	0.66123	UT	UT	UT	UT
196.001	0.500	Valid Other Greeble: stimulus that was an untested or no response greeble and that followed a valid cue	GRE	V	1	0.66123	UT	UT	UT	UT
198.002	1.000	Valid Miss Cue: valid cue where following object was a subsequent miss	OBJ	V	1	0.60494	LC-MISS	 1.9489	UT	UT
204.002	0.500	Valid Miss Obj: object that was a subsequent miss and that followed a valid cue	OBJ	V	1	0.60494	LC-MISS	 1.9489	UT	UT
206.002	1.000	Valid Other Greeble Cue: valid cue where following stimulus was an untested or no response greeble	GRE	V	1	0.69397	UT	UT	UT	UT
212.002	0.500	Valid Other Greeble: stimulus that was an untested or no response greeble and that followed a valid cue	GRE	V	1	0.69397	UT	UT	UT	UT
214.001	1.000	Invalid HC-Hit Cue: invalid cue where following object was a subsequent high confidence hit	OBJ	NV	1	0.77426	HC-HIT	 1.5975	1	0.41525
218.001	0.500	Invalid HC-Hit Obj: object that was a subsequent high confidence hit and that followed an invalid cue	OBJ	NV	1	0.77426	HC-HIT	 1.5975	1	0.41525
222.001	1.000	Valid LC-Hit Cue: valid cue where following object was a subsequent low confidence hit	OBJ	V	1	 0.7618	LC-HIT	0.87931	1	0.24166
224.001	0.500	Valid LC-Hit Obj: object that was a subsequent low confidence hit and that followed a valid cue	OBJ	V	1	 0.7618	LC-HIT	0.87931	1	0.24166
226.002	1.000	Valid LC-Hit Cue: valid cue where following object was a subsequent low confidence hit	OBJ	V	1	0.58779	LC-HIT	 1.1255	1	0.33287
228.002	0.500	Valid LC-Hit Obj: object that was a subsequent low confidence hit and that followed a valid cue	OBJ	V	1	0.58779	LC-HIT	 1.1255	1	0.33287
232.001	1.000	Valid Miss Cue: valid cue where following object was a subsequent miss	OBJ	V	1	0.74022	LC-MISS	 1.0608	UT	UT
236.001	0.500	Valid Miss Obj: object that was a subsequent miss and that followed a valid cue	OBJ	V	1	0.74022	LC-MISS	 1.0608	UT	UT
238.001	1.000	Valid LC-Hit Cue: valid cue where following object was a subsequent low confidence hit	OBJ	V	1	0.58879	LC-HIT	  2.023	0	0.51428
244.001	0.500	Valid LC-Hit Obj: object that was a subsequent low confidence hit and that followed a valid cue	OBJ	V	1	0.58879	LC-HIT	  2.023	0	0.51428
246.001	1.000	Valid LC-Hit Cue: valid cue where following object was a subsequent low confidence hit	OBJ	V	1	0.78124	LC-HIT	 1.2994	1	0.083134
250.001	0.500	Valid LC-Hit Obj: object that was a subsequent low confidence hit and that followed a valid cue	OBJ	V	1	0.78124	LC-HIT	 1.2994	1	0.083134
252.002	1.000	Invalid Other Greeble Cue: invalid cue where following stimulus was an untested or no response greeble	GRE	NV	1	0.84518	UT	UT	UT	UT
258.002	0.500	Invalid Other Greeble: stimulus that was an untested or no response greeble and that followed a invalid cue	GRE	NV	1	0.84518	UT	UT	UT	UT
260.001	1.000	Valid Other Greeble Cue: valid cue where following stimulus was an untested or no response greeble	GRE	V	1	0.71771	UT	UT	UT	UT
264.001	0.500	Valid Other Greeble: stimulus that was an untested or no response greeble and that followed a valid cue	GRE	V	1	0.71771	UT	UT	UT	UT
266.001	1.000	Valid Other Obj Cue: valid cue where following stimulus was an untested or no response object	OBJ	V	1	0.73162	UT	UT	UT	UT
268.001	0.500	Valid Other Obj: stimulus that was an untested or no response object and that followed a valid cue	OBJ	V	1	0.73162	UT	UT	UT	UT
270.002	1.000	Valid Other Greeble Cue: valid cue where following stimulus was an untested or no response greeble	GRE	V	1	0.74555	UT	UT	UT	UT
276.002	0.500	Valid Other Greeble: stimulus that was an untested or no response greeble and that followed a valid cue	GRE	V	1	0.74555	UT	UT	UT	UT
278.001	1.000	Valid HC-Hit Cue: valid cue where following object was a subsequent high confidence hit	OBJ	V	1	 1.0679	HC-HIT	 1.1512	1	0.31634
282.001	0.500	Valid HC-Hit Obj: object that was a subsequent high confidence hit and that followed a valid cue	OBJ	V	1	 1.0679	HC-HIT	 1.1512	1	0.31634
284.002	1.000	Valid LC-Hit Cue: valid cue where following object was a subsequent low confidence hit	OBJ	V	1	0.74035	LC-HIT	 1.5172	0	0.24684
290.002	0.500	Valid LC-Hit Obj: object that was a subsequent low confidence hit and that followed a valid cue	OBJ	V	1	0.74035	LC-HIT	 1.5172	0	0.24684
292.001	1.000	Valid Miss Cue: valid cue where following object was a subsequent miss	OBJ	V	1	 1.0305	HC-MISS	 2.1872	UT	UT
294.001	0.500	Valid Miss Obj: object that was a subsequent miss and that followed a valid cue	OBJ	V	1	 1.0305	HC-MISS	 2.1872	UT	UT
296.002	1.000	Valid Other Obj Cue: valid cue where following stimulus was an untested or no response object	OBJ	V	1	0.62808	UT	UT	UT	UT
298.002	0.500	Valid Other Obj: stimulus that was an untested or no response object and that followed a valid cue	OBJ	V	1	0.62808	UT	UT	UT	UT
300.001	1.000	Valid HC-Hit Cue: valid cue where following object was a subsequent high confidence hit	OBJ	V	NR	NR	HC-HIT	0.90182	1	1.0778
304.001	0.500	Valid HC-Hit Obj: object that was a subsequent high confidence hit and that followed a valid cue	OBJ	V	NR	NR	HC-HIT	0.90182	1	1.0778
306.002	1.000	Valid LC-Hit Cue: valid cue where following object was a subsequent low confidence hit	OBJ	V	1	0.77285	LC-HIT	 1.4218	1	0.91253
312.002	0.500	Valid LC-Hit Obj: object that was a subsequent low confidence hit and that followed a valid cue	OBJ	V	1	0.77285	LC-HIT	 1.4218	1	0.91253
314.002	1.000	Valid LC-Hit Cue: valid cue where following object was a subsequent low confidence hit	OBJ	V	1	0.69934	LC-HIT	   1.04	1	0.040168
320.002	0.500	Valid LC-Hit Obj: object that was a subsequent low confidence hit and that followed a valid cue	OBJ	V	1	0.69934	LC-HIT	   1.04	1	0.040168
324.001	1.000	Valid Miss Cue: valid cue where following object was a subsequent miss	OBJ	V	1	0.74817	LC-MISS	 2.5015	UT	UT
328.001	0.500	Valid Miss Obj: object that was a subsequent miss and that followed a valid cue	OBJ	V	1	0.74817	LC-MISS	 2.5015	UT	UT
332.001	1.000	Valid Other Greeble Cue: valid cue where following stimulus was an untested or no response greeble	GRE	V	1	0.76921	UT	UT	UT	UT
338.001	0.500	Valid Other Greeble: stimulus that was an untested or no response greeble and that followed a valid cue	GRE	V	1	0.76921	UT	UT	UT	UT
342.002	1.000	Valid LC-Hit Cue: valid cue where following object was a subsequent low confidence hit	OBJ	V	1	0.73009	LC-HIT	 2.2607	0	0.83389
344.002	0.500	Valid LC-Hit Obj: object that was a subsequent low confidence hit and that followed a valid cue	OBJ	V	1	0.73009	LC-HIT	 2.2607	0	0.83389
346.002	1.000	Invalid HC-Hit Cue: invalid cue where following object was a subsequent high confidence hit	OBJ	NV	1	0.75568	HC-HIT	  2.399	1	0.73236
350.002	0.500	Invalid HC-Hit Obj: object that was a subsequent high confidence hit and that followed an invalid cue	OBJ	NV	1	0.75568	HC-HIT	  2.399	1	0.73236
352.002	1.000	Valid Other Greeble Cue: valid cue where following stimulus was an untested or no response greeble	GRE	V	1	 1.2055	UT	UT	UT	UT
356.002	0.500	Valid Other Greeble: stimulus that was an untested or no response greeble and that followed a valid cue	GRE	V	1	 1.2055	UT	UT	UT	UT
358.001	1.000	Valid Miss Cue: valid cue where following object was a subsequent miss	OBJ	V	1	0.71327	LC-MISS	 2.3863	UT	UT
360.001	0.500	Valid Miss Obj: object that was a subsequent miss and that followed a valid cue	OBJ	V	1	0.71327	LC-MISS	 2.3863	UT	UT
362.002	1.000	Valid HC-Hit Cue: valid cue where following object was a subsequent high confidence hit	OBJ	V	1	0.66899	HC-HIT	 1.0993	0	0.39611
364.002	0.500	Valid HC-Hit Obj: object that was a subsequent high confidence hit and that followed a valid cue	OBJ	V	1	0.66899	HC-HIT	 1.0993	0	0.39611
