onset	duration	trial_type	Object_Cond	Validity_Cond	Obj_Accuracy	Obj_Acc_RT	Subseq_Recog	Subseq_Recog_RT	Subseq_Source_Mem_Acc	Subseq_Source_Mem_Acc_RT
4.0007	1.0	Valid Other Obj Cue: valid cue where following stimulus was an untested or no response object	OBJ	V	1	0.61943	UT	UT	UT	UT
10.0007	0.5	Valid Other Obj: stimulus that was an untested or no response object and that followed a valid cue	OBJ	V	1	0.61943	UT	UT	UT	UT
12.0014	1.0	Valid HC-Hit Cue: valid cue where following object was a subsequent high confidence hit	OBJ	V	1	0.61442	HC-HIT	 1.2416	0	0.17351
14.0014	0.5	Valid HC-Hit Obj: object that was a subsequent high confidence hit and that followed a valid cue	OBJ	V	1	0.61442	HC-HIT	 1.2416	0	0.17351
16.0009	1.0	Valid Other Greeble Cue: valid cue where following stimulus was an untested or no response greeble	GRE	V	1	0.64146	UT	UT	UT	UT
18.0009	0.5	Valid Other Greeble: stimulus that was an untested or no response greeble and that followed a valid cue	GRE	V	1	0.64146	UT	UT	UT	UT
20.000999999999998	1.0	Invalid Miss Cue: invalid cue where following object was a subsequent miss	OBJ	NV	1	0.6600600000000001	LC-MISS	 1.3123	UT	UT
24.000999999999998	0.5	Invalid Miss Obj: object that was a subsequent miss and that followed an invalid cue	OBJ	NV	1	0.6600600000000001	LC-MISS	 1.3123	UT	UT
26.0014	1.0	Valid LC-Hit Cue: valid cue where following object was a subsequent low confidence hit	OBJ	V	1	0.68729	LC-HIT	 1.0619	0	0.20786
28.0014	0.5	Valid LC-Hit Obj: object that was a subsequent low confidence hit and that followed a valid cue	OBJ	V	1	0.68729	LC-HIT	 1.0619	0	0.20786
30.0014	1.0	Valid Miss Cue: valid cue where following object was a subsequent miss	OBJ	V	1	0.69777	LC-MISS	 2.0545	UT	UT
34.0014	0.5	Valid Miss Obj: object that was a subsequent miss and that followed a valid cue	OBJ	V	1	0.69777	LC-MISS	 2.0545	UT	UT
36.0017	1.0	Valid Other Greeble Cue: valid cue where following stimulus was an untested or no response greeble	GRE	V	1	0.6581	UT	UT	UT	UT
40.0017	0.5	Valid Other Greeble: stimulus that was an untested or no response greeble and that followed a valid cue	GRE	V	1	0.6581	UT	UT	UT	UT
42.0019	1.0	Valid Other Obj Cue: valid cue where following stimulus was an untested or no response object	OBJ	V	1	0.70081	UT	UT	UT	UT
46.0019	0.5	Valid Other Obj: stimulus that was an untested or no response object and that followed a valid cue	OBJ	V	1	0.70081	UT	UT	UT	UT
48.0017	1.0	Valid LC-Hit Cue: valid cue where following object was a subsequent low confidence hit	OBJ	V	1	0.72027	LC-HIT	 1.1855	0	0.26105
50.0017	0.5	Valid LC-Hit Obj: object that was a subsequent low confidence hit and that followed a valid cue	OBJ	V	1	0.72027	LC-HIT	 1.1855	0	0.26105
54.001000000000005	1.0	Valid Miss Cue: valid cue where following object was a subsequent miss	OBJ	V	1	0.98193	LC-MISS	 1.0418	UT	UT
60.001000000000005	0.5	Valid Miss Obj: object that was a subsequent miss and that followed a valid cue	OBJ	V	1	0.98193	LC-MISS	 1.0418	UT	UT
62.0011	1.0	Valid Other Greeble Cue: valid cue where following stimulus was an untested or no response greeble	GRE	V	1	0.7034199999999999	UT	UT	UT	UT
66.0011	0.5	Valid Other Greeble: stimulus that was an untested or no response greeble and that followed a valid cue	GRE	V	1	0.7034199999999999	UT	UT	UT	UT
68.0013	1.0	Invalid HC-Hit Cue: invalid cue where following object was a subsequent high confidence hit	OBJ	NV	1	0.84188	HC-HIT	 2.2021	0	0.88396
72.0013	0.5	Invalid HC-Hit Obj: object that was a subsequent high confidence hit and that followed an invalid cue	OBJ	NV	1	0.84188	HC-HIT	 2.2021	0	0.88396
74.0009	1.0	Valid LC-Hit Cue: valid cue where following object was a subsequent low confidence hit	OBJ	V	1	0.6987300000000001	LC-HIT	 1.3671	1	0.52318
78.0009	0.5	Valid LC-Hit Obj: object that was a subsequent low confidence hit and that followed a valid cue	OBJ	V	1	0.6987300000000001	LC-HIT	 1.3671	1	0.52318
80.0015	1.0	Valid Other Greeble Cue: valid cue where following stimulus was an untested or no response greeble	GRE	V	1	0.72159	UT	UT	UT	UT
86.0015	0.5	Valid Other Greeble: stimulus that was an untested or no response greeble and that followed a valid cue	GRE	V	1	0.72159	UT	UT	UT	UT
88.0008	1.0	Valid Miss Cue: valid cue where following object was a subsequent miss	OBJ	V	1	0.7477699999999999	LC-MISS	0.86808	UT	UT
92.0008	0.5	Valid Miss Obj: object that was a subsequent miss and that followed a valid cue	OBJ	V	1	0.7477699999999999	LC-MISS	0.86808	UT	UT
94.0008	1.0	Invalid Miss Cue: invalid cue where following object was a subsequent miss	OBJ	NV	1	0.7550100000000001	LC-MISS	0.82936	UT	UT
100.0008	0.5	Invalid Miss Obj: object that was a subsequent miss and that followed an invalid cue	OBJ	NV	1	0.7550100000000001	LC-MISS	0.82936	UT	UT
104.0015	1.0	Valid Other Greeble Cue: valid cue where following stimulus was an untested or no response greeble	GRE	V	1	0.9451799999999999	UT	UT	UT	UT
110.0015	0.5	Valid Other Greeble: stimulus that was an untested or no response greeble and that followed a valid cue	GRE	V	1	0.9451799999999999	UT	UT	UT	UT
112.0016	1.0	Valid Miss Cue: valid cue where following object was a subsequent miss	OBJ	V	1	0.85396	LC-MISS	0.97134	UT	UT
114.0016	0.5	Valid Miss Obj: object that was a subsequent miss and that followed a valid cue	OBJ	V	1	0.85396	LC-MISS	0.97134	UT	UT
116.0007	1.0	Valid Miss Cue: valid cue where following object was a subsequent miss	OBJ	V	1	0.73145	LC-MISS	 2.1306	UT	UT
122.0007	0.5	Valid Miss Obj: object that was a subsequent miss and that followed a valid cue	OBJ	V	1	0.73145	LC-MISS	 2.1306	UT	UT
124.0015	1.0	Valid LC-Hit Cue: valid cue where following object was a subsequent low confidence hit	OBJ	V	1	0.96578	LC-HIT	 1.0403	1	0.20364
128.0015	0.5	Valid LC-Hit Obj: object that was a subsequent low confidence hit and that followed a valid cue	OBJ	V	1	0.96578	LC-HIT	 1.0403	1	0.20364
130.0011	1.0	Valid Other Obj Cue: valid cue where following stimulus was an untested or no response object	OBJ	V	1	0.85301	UT	UT	UT	UT
136.0011	0.5	Valid Other Obj: stimulus that was an untested or no response object and that followed a valid cue	OBJ	V	1	0.85301	UT	UT	UT	UT
140.0016	1.0	Valid HC-Hit Cue: valid cue where following object was a subsequent high confidence hit	OBJ	V	1	0.91565	HC-HIT	 1.4447	1	0.73432
146.0016	0.5	Valid HC-Hit Obj: object that was a subsequent high confidence hit and that followed a valid cue	OBJ	V	1	0.91565	HC-HIT	 1.4447	1	0.73432
148.0009	1.0	Invalid HC-Hit Cue: invalid cue where following object was a subsequent high confidence hit	OBJ	NV	1	0.9864200000000001	HC-HIT	 1.2839	1	0.21119
154.0009	0.5	Invalid HC-Hit Obj: object that was a subsequent high confidence hit and that followed an invalid cue	OBJ	NV	1	0.9864200000000001	HC-HIT	 1.2839	1	0.21119
156.0018	1.0	Valid HC-Hit Cue: valid cue where following object was a subsequent high confidence hit	OBJ	V	1	1.0517	HC-HIT	 1.1734	1	0.17371
160.0018	0.5	Valid HC-Hit Obj: object that was a subsequent high confidence hit and that followed a valid cue	OBJ	V	1	1.0517	HC-HIT	 1.1734	1	0.17371
164.0017	1.0	Valid Other Greeble Cue: valid cue where following stimulus was an untested or no response greeble	GRE	V	1	0.8818299999999999	UT	UT	UT	UT
170.0017	0.5	Valid Other Greeble: stimulus that was an untested or no response greeble and that followed a valid cue	GRE	V	1	0.8818299999999999	UT	UT	UT	UT
172.0016	1.0	Invalid Other Greeble Cue: invalid cue where following stimulus was an untested or no response greeble	GRE	NV	1	0.8336	UT	UT	UT	UT
178.0016	0.5	Invalid Other Greeble: stimulus that was an untested or no response greeble and that followed a invalid cue	GRE	NV	1	0.8336	UT	UT	UT	UT
180.0013	1.0	Valid LC-Hit Cue: valid cue where following object was a subsequent low confidence hit	OBJ	V	1	1.0693	LC-HIT	 1.0501	1	0.17425
182.0013	0.5	Valid LC-Hit Obj: object that was a subsequent low confidence hit and that followed a valid cue	OBJ	V	1	1.0693	LC-HIT	 1.0501	1	0.17425
184.00099999999998	1.0	Valid HC-Hit Cue: valid cue where following object was a subsequent high confidence hit	OBJ	V	1	1.0234	HC-HIT	 1.1637	1	0.56279
188.00099999999998	0.5	Valid HC-Hit Obj: object that was a subsequent high confidence hit and that followed a valid cue	OBJ	V	1	1.0234	HC-HIT	 1.1637	1	0.56279
190.0011	1.0	Invalid HC-Hit Cue: invalid cue where following object was a subsequent high confidence hit	OBJ	NV	1	0.8831100000000001	HC-HIT	 1.1007	0	0.5853
192.0011	0.5	Invalid HC-Hit Obj: object that was a subsequent high confidence hit and that followed an invalid cue	OBJ	NV	1	0.8831100000000001	HC-HIT	 1.1007	0	0.5853
194.0008	1.0	Valid LC-Hit Cue: valid cue where following object was a subsequent low confidence hit	OBJ	V	1	0.7566	LC-HIT	 1.4384	0	0.33655
198.0008	0.5	Valid LC-Hit Obj: object that was a subsequent low confidence hit and that followed a valid cue	OBJ	V	1	0.7566	LC-HIT	 1.4384	0	0.33655
200.0015	1.0	Valid Other Greeble Cue: valid cue where following stimulus was an untested or no response greeble	GRE	V	1	0.7366199999999999	UT	UT	UT	UT
202.0015	0.5	Valid Other Greeble: stimulus that was an untested or no response greeble and that followed a valid cue	GRE	V	1	0.7366199999999999	UT	UT	UT	UT
204.0013	1.0	Valid Other Obj Cue: valid cue where following stimulus was an untested or no response object	OBJ	V	1	0.72424	UT	UT	UT	UT
206.0013	0.5	Valid Other Obj: stimulus that was an untested or no response object and that followed a valid cue	OBJ	V	1	0.72424	UT	UT	UT	UT
208.0016	1.0	Valid Other Greeble Cue: valid cue where following stimulus was an untested or no response greeble	GRE	V	1	0.6809	UT	UT	UT	UT
210.0016	0.5	Valid Other Greeble: stimulus that was an untested or no response greeble and that followed a valid cue	GRE	V	1	0.6809	UT	UT	UT	UT
212.0013	1.0	Invalid HC-Hit Cue: invalid cue where following object was a subsequent high confidence hit	OBJ	NV	1	0.96916	HC-HIT	  1.432	1	0.049811
216.0013	0.5	Invalid HC-Hit Obj: object that was a subsequent high confidence hit and that followed an invalid cue	OBJ	NV	1	0.96916	HC-HIT	  1.432	1	0.049811
220.0011	1.0	Valid HC-Hit Cue: valid cue where following object was a subsequent high confidence hit	OBJ	V	1	0.8309700000000001	HC-HIT	 1.2193	1	0.70164
226.0011	0.5	Valid HC-Hit Obj: object that was a subsequent high confidence hit and that followed a valid cue	OBJ	V	1	0.8309700000000001	HC-HIT	 1.2193	1	0.70164
230.0008	1.0	Valid LC-Hit Cue: valid cue where following object was a subsequent low confidence hit	OBJ	V	1	0.9355899999999999	LC-HIT	 2.4837	0	0.45429
234.0008	0.5	Valid LC-Hit Obj: object that was a subsequent low confidence hit and that followed a valid cue	OBJ	V	1	0.9355899999999999	LC-HIT	 2.4837	0	0.45429
240.0012	1.0	Invalid Miss Cue: invalid cue where following object was a subsequent miss	OBJ	NV	1	1.2146	LC-MISS	0.81643	UT	UT
242.0012	0.5	Invalid Miss Obj: object that was a subsequent miss and that followed an invalid cue	OBJ	NV	1	1.2146	LC-MISS	0.81643	UT	UT
246.0025	1.0	Valid Other Greeble Cue: valid cue where following stimulus was an untested or no response greeble	GRE	V	1	0.68457	UT	UT	UT	UT
252.0025	0.5	Valid Other Greeble: stimulus that was an untested or no response greeble and that followed a valid cue	GRE	V	1	0.68457	UT	UT	UT	UT
256.0013	1.0	Valid Miss Cue: valid cue where following object was a subsequent miss	OBJ	V	1	0.80986	LC-MISS	 1.2253	UT	UT
262.0013	0.5	Valid Miss Obj: object that was a subsequent miss and that followed a valid cue	OBJ	V	1	0.80986	LC-MISS	 1.2253	UT	UT
264.0013	1.0	Valid Other Greeble Cue: valid cue where following stimulus was an untested or no response greeble	GRE	V	1	0.71813	UT	UT	UT	UT
266.0013	0.5	Valid Other Greeble: stimulus that was an untested or no response greeble and that followed a valid cue	GRE	V	1	0.71813	UT	UT	UT	UT
268.0008	1.0	Invalid LC-Hit Cue: invalid cue where following object was a subsequent low confidence hit	OBJ	NV	1	1.192	LC-HIT	 3.3982	1	0.31201
270.0008	0.5	Invalid LC-Hit Obj: object that was a subsequent low confidence hit and that followed an invalid cue	OBJ	NV	1	1.192	LC-HIT	 3.3982	1	0.31201
276.0014	1.0	Valid Miss Cue: valid cue where following object was a subsequent miss	OBJ	V	1	0.75212	LC-MISS	 1.1125	UT	UT
278.0014	0.5	Valid Miss Obj: object that was a subsequent miss and that followed a valid cue	OBJ	V	1	0.75212	LC-MISS	 1.1125	UT	UT
280.0023	1.0	Valid Other Greeble Cue: valid cue where following stimulus was an untested or no response greeble	GRE	V	1	0.74003	UT	UT	UT	UT
282.0023	0.5	Valid Other Greeble: stimulus that was an untested or no response greeble and that followed a valid cue	GRE	V	1	0.74003	UT	UT	UT	UT
284.001	1.0	Valid Miss Cue: valid cue where following object was a subsequent miss	OBJ	V	1	0.79711	HC-MISS	 1.7183	UT	UT
288.001	0.5	Valid Miss Obj: object that was a subsequent miss and that followed a valid cue	OBJ	V	1	0.79711	HC-MISS	 1.7183	UT	UT
290.0015	1.0	Valid LC-Hit Cue: valid cue where following object was a subsequent low confidence hit	OBJ	V	1	0.88675	LC-HIT	 1.8762	1	0.34369
296.0015	0.5	Valid LC-Hit Obj: object that was a subsequent low confidence hit and that followed a valid cue	OBJ	V	1	0.88675	LC-HIT	 1.8762	1	0.34369
298.001	1.0	Valid Other Greeble Cue: valid cue where following stimulus was an untested or no response greeble	GRE	V	1	0.6842199999999999	UT	UT	UT	UT
304.001	0.5	Valid Other Greeble: stimulus that was an untested or no response greeble and that followed a valid cue	GRE	V	1	0.6842199999999999	UT	UT	UT	UT
306.0014	1.0	Valid Other Greeble Cue: valid cue where following stimulus was an untested or no response greeble	GRE	V	1	0.81671	UT	UT	UT	UT
308.0014	0.5	Valid Other Greeble: stimulus that was an untested or no response greeble and that followed a valid cue	GRE	V	1	0.81671	UT	UT	UT	UT
310.0009	1.0	Valid LC-Hit Cue: valid cue where following object was a subsequent low confidence hit	OBJ	V	1	0.64035	LC-HIT	  1.954	0	0.22103
316.0009	0.5	Valid LC-Hit Obj: object that was a subsequent low confidence hit and that followed a valid cue	OBJ	V	1	0.64035	LC-HIT	  1.954	0	0.22103
318.0015	1.0	Valid Other Obj Cue: valid cue where following stimulus was an untested or no response object	OBJ	V	1	0.77782	UT	UT	UT	UT
322.0015	0.5	Valid Other Obj: stimulus that was an untested or no response object and that followed a valid cue	OBJ	V	1	0.77782	UT	UT	UT	UT
324.0015	1.0	Invalid Other Greeble Cue: invalid cue where following stimulus was an untested or no response greeble	GRE	NV	1	0.81005	UT	UT	UT	UT
330.0015	0.5	Invalid Other Greeble: stimulus that was an untested or no response greeble and that followed a invalid cue	GRE	NV	1	0.81005	UT	UT	UT	UT
332.0016	1.0	Valid Miss Cue: valid cue where following object was a subsequent miss	OBJ	V	1	0.78166	LC-MISS	  1.414	UT	UT
334.0016	0.5	Valid Miss Obj: object that was a subsequent miss and that followed a valid cue	OBJ	V	1	0.78166	LC-MISS	  1.414	UT	UT
336.0017	1.0	Valid Other Greeble Cue: valid cue where following stimulus was an untested or no response greeble	GRE	V	1	0.58449	UT	UT	UT	UT
340.0017	0.5	Valid Other Greeble: stimulus that was an untested or no response greeble and that followed a valid cue	GRE	V	1	0.58449	UT	UT	UT	UT
342.0011	1.0	Valid LC-Hit Cue: valid cue where following object was a subsequent low confidence hit	OBJ	V	1	0.83336	LC-HIT	 3.1332	1	0.35006
346.0011	0.5	Valid LC-Hit Obj: object that was a subsequent low confidence hit and that followed a valid cue	OBJ	V	1	0.83336	LC-HIT	 3.1332	1	0.35006
350.0015	1.0	Valid Miss Cue: valid cue where following object was a subsequent miss	OBJ	V	1	0.6733399999999999	LC-MISS	 1.0089	UT	UT
354.0015	0.5	Valid Miss Obj: object that was a subsequent miss and that followed a valid cue	OBJ	V	1	0.6733399999999999	LC-MISS	 1.0089	UT	UT
356.0007	1.0	Valid Miss Cue: valid cue where following object was a subsequent miss	OBJ	V	1	0.8936799999999999	LC-MISS	 1.7032	UT	UT
358.0007	0.5	Valid Miss Obj: object that was a subsequent miss and that followed a valid cue	OBJ	V	1	0.8936799999999999	LC-MISS	 1.7032	UT	UT
360.001	1.0	Valid HC-Hit Cue: valid cue where following object was a subsequent high confidence hit	OBJ	V	1	0.63974	HC-HIT	 1.1658	1	0.45148
362.001	0.5	Valid HC-Hit Obj: object that was a subsequent high confidence hit and that followed a valid cue	OBJ	V	1	0.63974	HC-HIT	 1.1658	1	0.45148
