onset	duration	trial_type	Object_Cond	Validity_Cond	Obj_Accuracy	Obj_Acc_RT	Subseq_Recog	Subseq_Recog_RT	Subseq_Source_Mem_Acc	Subseq_Source_Mem_Acc_RT
4.0012	1.0	Valid Other Greeble Cue: valid cue where following stimulus was an untested or no response greeble	GRE	V	1	0.8285	UT	UT	UT	UT
8.0012	0.5	Valid Other Greeble: stimulus that was an untested or no response greeble and that followed a valid cue	GRE	V	1	0.8285	UT	UT	UT	UT
10.0018	1.0	Valid Miss Cue: valid cue where following object was a subsequent miss	OBJ	V	1	0.80645	LC-MISS	 1.4454	UT	UT
14.0018	0.5	Valid Miss Obj: object that was a subsequent miss and that followed a valid cue	OBJ	V	1	0.80645	LC-MISS	 1.4454	UT	UT
16.0008	1.0	Valid Other Greeble Cue: valid cue where following stimulus was an untested or no response greeble	GRE	V	1	0.7014600000000001	UT	UT	UT	UT
22.0008	0.5	Valid Other Greeble: stimulus that was an untested or no response greeble and that followed a valid cue	GRE	V	1	0.7014600000000001	UT	UT	UT	UT
26.000999999999998	1.0	Invalid LC-Hit Cue: invalid cue where following object was a subsequent low confidence hit	OBJ	NV	1	0.68498	LC-HIT	 2.7293	1	0.3841
30.000999999999998	0.5	Invalid LC-Hit Obj: object that was a subsequent low confidence hit and that followed an invalid cue	OBJ	NV	1	0.68498	LC-HIT	 2.7293	1	0.3841
32.001	1.0	Valid Other Greeble Cue: valid cue where following stimulus was an untested or no response greeble	GRE	V	1	0.7137899999999999	UT	UT	UT	UT
34.001	0.5	Valid Other Greeble: stimulus that was an untested or no response greeble and that followed a valid cue	GRE	V	1	0.7137899999999999	UT	UT	UT	UT
36.0014	1.0	Valid HC-Hit Cue: valid cue where following object was a subsequent high confidence hit	OBJ	V	1	0.86167	HC-HIT	 2.1798	1	0.25299
38.0014	0.5	Valid HC-Hit Obj: object that was a subsequent high confidence hit and that followed a valid cue	OBJ	V	1	0.86167	HC-HIT	 2.1798	1	0.25299
40.0013	1.0	Valid HC-Hit Cue: valid cue where following object was a subsequent high confidence hit	OBJ	V	1	0.84134	HC-HIT	 1.8136	0	0.11186
42.0013	0.5	Valid HC-Hit Obj: object that was a subsequent high confidence hit and that followed a valid cue	OBJ	V	1	0.84134	HC-HIT	 1.8136	0	0.11186
44.0015	1.0	Valid Miss Cue: valid cue where following object was a subsequent miss	OBJ	V	1	0.70908	LC-MISS	 2.8184	UT	UT
46.0015	0.5	Valid Miss Obj: object that was a subsequent miss and that followed a valid cue	OBJ	V	1	0.70908	LC-MISS	 2.8184	UT	UT
48.0015	1.0	Valid Other Greeble Cue: valid cue where following stimulus was an untested or no response greeble	GRE	V	1	0.8756700000000001	UT	UT	UT	UT
54.0015	0.5	Valid Other Greeble: stimulus that was an untested or no response greeble and that followed a valid cue	GRE	V	1	0.8756700000000001	UT	UT	UT	UT
56.0011	1.0	Invalid Other Greeble Cue: invalid cue where following stimulus was an untested or no response greeble	GRE	NV	1	0.67987	UT	UT	UT	UT
58.0011	0.5	Invalid Other Greeble: stimulus that was an untested or no response greeble and that followed a invalid cue	GRE	NV	1	0.67987	UT	UT	UT	UT
60.0011	1.0	Valid Miss Cue: valid cue where following object was a subsequent miss	OBJ	V	1	0.6120899999999999	LC-MISS	 1.0047	UT	UT
62.0011	0.5	Valid Miss Obj: object that was a subsequent miss and that followed a valid cue	OBJ	V	1	0.6120899999999999	LC-MISS	 1.0047	UT	UT
64.0016	1.0	Valid Other Greeble Cue: valid cue where following stimulus was an untested or no response greeble	GRE	V	1	0.53901	UT	UT	UT	UT
70.0016	0.5	Valid Other Greeble: stimulus that was an untested or no response greeble and that followed a valid cue	GRE	V	1	0.53901	UT	UT	UT	UT
74.0012	1.0	Valid Miss Cue: valid cue where following object was a subsequent miss	OBJ	V	1	0.64379	LC-MISS	0.75772	UT	UT
78.0012	0.5	Valid Miss Obj: object that was a subsequent miss and that followed a valid cue	OBJ	V	1	0.64379	LC-MISS	0.75772	UT	UT
84.0012	1.0	Valid HC-Hit Cue: valid cue where following object was a subsequent high confidence hit	OBJ	V	1	0.73839	HC-HIT	 1.2024	1	0.30239
86.0012	0.5	Valid HC-Hit Obj: object that was a subsequent high confidence hit and that followed a valid cue	OBJ	V	1	0.73839	HC-HIT	 1.2024	1	0.30239
88.0015	1.0	Invalid Other Greeble Cue: invalid cue where following stimulus was an untested or no response greeble	GRE	NV	1	0.5978600000000001	UT	UT	UT	UT
90.0015	0.5	Invalid Other Greeble: stimulus that was an untested or no response greeble and that followed a invalid cue	GRE	NV	1	0.5978600000000001	UT	UT	UT	UT
92.0009	1.0	Valid LC-Hit Cue: valid cue where following object was a subsequent low confidence hit	OBJ	V	1	0.63974	LC-HIT	 1.9235	0	0.25341
96.0009	0.5	Valid LC-Hit Obj: object that was a subsequent low confidence hit and that followed a valid cue	OBJ	V	1	0.63974	LC-HIT	 1.9235	0	0.25341
98.0018	1.0	Valid Other Greeble Cue: valid cue where following stimulus was an untested or no response greeble	GRE	V	1	0.8875799999999999	UT	UT	UT	UT
104.0018	0.5	Valid Other Greeble: stimulus that was an untested or no response greeble and that followed a valid cue	GRE	V	1	0.8875799999999999	UT	UT	UT	UT
106.0016	1.0	Valid HC-Hit Cue: valid cue where following object was a subsequent high confidence hit	OBJ	V	1	0.986	HC-HIT	 1.6812	1	0.23751
110.0016	0.5	Valid HC-Hit Obj: object that was a subsequent high confidence hit and that followed a valid cue	OBJ	V	1	0.986	HC-HIT	 1.6812	1	0.23751
114.0012	1.0	Valid Miss Cue: valid cue where following object was a subsequent miss	OBJ	V	1	0.67362	LC-MISS	 2.3867	UT	UT
118.0012	0.5	Valid Miss Obj: object that was a subsequent miss and that followed a valid cue	OBJ	V	1	0.67362	LC-MISS	 2.3867	UT	UT
120.0009	1.0	Valid HC-Hit Cue: valid cue where following object was a subsequent high confidence hit	OBJ	V	1	0.93216	HC-HIT	 1.5962	1	0.12704
124.0009	0.5	Valid HC-Hit Obj: object that was a subsequent high confidence hit and that followed a valid cue	OBJ	V	1	0.93216	HC-HIT	 1.5962	1	0.12704
128.002	1.0	Valid Miss Cue: valid cue where following object was a subsequent miss	OBJ	V	1	1.0049	HC-MISS	 1.7206	UT	UT
130.002	0.5	Valid Miss Obj: object that was a subsequent miss and that followed a valid cue	OBJ	V	1	1.0049	HC-MISS	 1.7206	UT	UT
134.0017	1.0	Valid Miss Cue: valid cue where following object was a subsequent miss	OBJ	V	1	0.85729	LC-MISS	 2.1701	UT	UT
140.0017	0.5	Valid Miss Obj: object that was a subsequent miss and that followed a valid cue	OBJ	V	1	0.85729	LC-MISS	 2.1701	UT	UT
142.0012	1.0	Valid Other Greeble Cue: valid cue where following stimulus was an untested or no response greeble	GRE	V	1	1.0043	UT	UT	UT	UT
146.0012	0.5	Valid Other Greeble: stimulus that was an untested or no response greeble and that followed a valid cue	GRE	V	1	1.0043	UT	UT	UT	UT
148.001	1.0	Valid LC-Hit Cue: valid cue where following object was a subsequent low confidence hit	OBJ	V	1	0.6853899999999999	LC-HIT	 1.0374	1	0.18881
152.001	0.5	Valid LC-Hit Obj: object that was a subsequent low confidence hit and that followed a valid cue	OBJ	V	1	0.6853899999999999	LC-HIT	 1.0374	1	0.18881
154.0011	1.0	Invalid LC-Hit Cue: invalid cue where following object was a subsequent low confidence hit	OBJ	NV	1	0.9744799999999999	LC-HIT	 1.5302	1	0.079585
158.0011	0.5	Invalid LC-Hit Obj: object that was a subsequent low confidence hit and that followed an invalid cue	OBJ	NV	1	0.9744799999999999	LC-HIT	 1.5302	1	0.079585
160.001	1.0	Valid HC-Hit Cue: valid cue where following object was a subsequent high confidence hit	OBJ	V	1	0.87023	HC-HIT	 1.0309	1	0.33951
166.00099999999998	0.5	Valid HC-Hit Obj: object that was a subsequent high confidence hit and that followed a valid cue	OBJ	V	1	0.87023	HC-HIT	 1.0309	1	0.33951
170.002	1.0	Valid Miss Cue: valid cue where following object was a subsequent miss	OBJ	V	1	0.95668	LC-MISS	0.88609	UT	UT
176.002	0.5	Valid Miss Obj: object that was a subsequent miss and that followed a valid cue	OBJ	V	1	0.95668	LC-MISS	0.88609	UT	UT
178.0019	1.0	Valid Other Greeble Cue: valid cue where following stimulus was an untested or no response greeble	GRE	V	1	0.9927600000000001	UT	UT	UT	UT
180.0019	0.5	Valid Other Greeble: stimulus that was an untested or no response greeble and that followed a valid cue	GRE	V	1	0.9927600000000001	UT	UT	UT	UT
182.0018	1.0	Valid Other Greeble Cue: valid cue where following stimulus was an untested or no response greeble	GRE	V	1	0.74066	UT	UT	UT	UT
184.0018	0.5	Valid Other Greeble: stimulus that was an untested or no response greeble and that followed a valid cue	GRE	V	1	0.74066	UT	UT	UT	UT
186.0013	1.0	Invalid Miss Cue: invalid cue where following object was a subsequent miss	OBJ	NV	1	1.1743	LC-MISS	0.79804	UT	UT
190.0013	0.5	Invalid Miss Obj: object that was a subsequent miss and that followed an invalid cue	OBJ	NV	1	1.1743	LC-MISS	0.79804	UT	UT
194.0012	1.0	Valid Other Greeble Cue: valid cue where following stimulus was an untested or no response greeble	GRE	V	1	0.73035	UT	UT	UT	UT
200.0012	0.5	Valid Other Greeble: stimulus that was an untested or no response greeble and that followed a valid cue	GRE	V	1	0.73035	UT	UT	UT	UT
202.00099999999998	1.0	Valid LC-Hit Cue: valid cue where following object was a subsequent low confidence hit	OBJ	V	1	0.63122	LC-HIT	 2.6795	0	1.146
204.00099999999998	0.5	Valid LC-Hit Obj: object that was a subsequent low confidence hit and that followed a valid cue	OBJ	V	1	0.63122	LC-HIT	 2.6795	0	1.146
206.0016	1.0	Invalid HC-Hit Cue: invalid cue where following object was a subsequent high confidence hit	OBJ	NV	1	1.2175	HC-HIT	 1.2114	1	0.20673
208.0016	0.5	Invalid HC-Hit Obj: object that was a subsequent high confidence hit and that followed an invalid cue	OBJ	NV	1	1.2175	HC-HIT	 1.2114	1	0.20673
210.0013	1.0	Valid HC-Hit Cue: valid cue where following object was a subsequent high confidence hit	OBJ	V	1	0.9634	HC-HIT	 1.0416	1	0.12694
216.0013	0.5	Valid HC-Hit Obj: object that was a subsequent high confidence hit and that followed a valid cue	OBJ	V	1	0.9634	HC-HIT	 1.0416	1	0.12694
218.0015	1.0	Valid Other Obj Cue: valid cue where following stimulus was an untested or no response object	OBJ	V	1	0.8255899999999999	UT	UT	UT	UT
224.0015	0.5	Valid Other Obj: stimulus that was an untested or no response object and that followed a valid cue	OBJ	V	1	0.8255899999999999	UT	UT	UT	UT
226.0019	1.0	Valid Miss Cue: valid cue where following object was a subsequent miss	OBJ	V	1	0.9003899999999999	LC-MISS	 1.9976	UT	UT
230.0019	0.5	Valid Miss Obj: object that was a subsequent miss and that followed a valid cue	OBJ	V	1	0.9003899999999999	LC-MISS	 1.9976	UT	UT
232.0011	1.0	Valid Other Obj Cue: valid cue where following stimulus was an untested or no response object	OBJ	V	1	0.8870399999999999	UT	UT	UT	UT
234.0011	0.5	Valid Other Obj: stimulus that was an untested or no response object and that followed a valid cue	OBJ	V	1	0.8870399999999999	UT	UT	UT	UT
236.0018	1.0	Invalid LC-Hit Cue: invalid cue where following object was a subsequent low confidence hit	OBJ	NV	1	1.0864	LC-HIT	 1.3777	1	0.1284
242.0018	0.5	Invalid LC-Hit Obj: object that was a subsequent low confidence hit and that followed an invalid cue	OBJ	NV	1	1.0864	LC-HIT	 1.3777	1	0.1284
246.0017	1.0	Valid HC-Hit Cue: valid cue where following object was a subsequent high confidence hit	OBJ	V	1	0.8523799999999999	HC-HIT	 1.2057	0	0.13495
252.0017	0.5	Valid HC-Hit Obj: object that was a subsequent high confidence hit and that followed a valid cue	OBJ	V	1	0.8523799999999999	HC-HIT	 1.2057	0	0.13495
254.0018	1.0	Valid Other Obj Cue: valid cue where following stimulus was an untested or no response object	OBJ	V	1	0.95142	UT	UT	UT	UT
256.0018	0.5	Valid Other Obj: stimulus that was an untested or no response object and that followed a valid cue	OBJ	V	1	0.95142	UT	UT	UT	UT
258.001	1.0	Valid Other Greeble Cue: valid cue where following stimulus was an untested or no response greeble	GRE	V	1	0.63976	UT	UT	UT	UT
264.001	0.5	Valid Other Greeble: stimulus that was an untested or no response greeble and that followed a valid cue	GRE	V	1	0.63976	UT	UT	UT	UT
266.0013	1.0	Valid Other Greeble Cue: valid cue where following stimulus was an untested or no response greeble	GRE	V	1	0.76965	UT	UT	UT	UT
270.0013	0.5	Valid Other Greeble: stimulus that was an untested or no response greeble and that followed a valid cue	GRE	V	1	0.76965	UT	UT	UT	UT
272.0019	1.0	Valid Other Obj Cue: valid cue where following stimulus was an untested or no response object	OBJ	V	1	0.86721	UT	UT	UT	UT
276.0019	0.5	Valid Other Obj: stimulus that was an untested or no response object and that followed a valid cue	OBJ	V	1	0.86721	UT	UT	UT	UT
278.0008	1.0	Invalid Miss Cue: invalid cue where following object was a subsequent miss	OBJ	NV	1	0.98235	LC-MISS	 2.6522	UT	UT
280.0008	0.5	Invalid Miss Obj: object that was a subsequent miss and that followed an invalid cue	OBJ	NV	1	0.98235	LC-MISS	 2.6522	UT	UT
286.0015	1.0	Valid LC-Hit Cue: valid cue where following object was a subsequent low confidence hit	OBJ	V	1	0.7808	LC-HIT	 1.1293	0	0.12969
290.0015	0.5	Valid LC-Hit Obj: object that was a subsequent low confidence hit and that followed a valid cue	OBJ	V	1	0.7808	LC-HIT	 1.1293	0	0.12969
292.0018	1.0	Valid Other Obj Cue: valid cue where following stimulus was an untested or no response object	OBJ	V	1	0.85388	UT	UT	UT	UT
296.0018	0.5	Valid Other Obj: stimulus that was an untested or no response object and that followed a valid cue	OBJ	V	1	0.85388	UT	UT	UT	UT
298.0018	1.0	Valid HC-Hit Cue: valid cue where following object was a subsequent high confidence hit	OBJ	V	1	0.90643	HC-HIT	 1.8427	1	0.44106
300.0018	0.5	Valid HC-Hit Obj: object that was a subsequent high confidence hit and that followed a valid cue	OBJ	V	1	0.90643	HC-HIT	 1.8427	1	0.44106
304.002	1.0	Invalid HC-Hit Cue: invalid cue where following object was a subsequent high confidence hit	OBJ	NV	1	1.0886	HC-HIT	 1.3404	0	0.57927
310.002	0.5	Invalid HC-Hit Obj: object that was a subsequent high confidence hit and that followed an invalid cue	OBJ	NV	1	1.0886	HC-HIT	 1.3404	0	0.57927
312.0013	1.0	Valid LC-Hit Cue: valid cue where following object was a subsequent low confidence hit	OBJ	V	1	1.0508	LC-HIT	 2.2142	1	0.21922
314.0013	0.5	Valid LC-Hit Obj: object that was a subsequent low confidence hit and that followed a valid cue	OBJ	V	1	1.0508	LC-HIT	 2.2142	1	0.21922
316.0011	1.0	Valid Miss Cue: valid cue where following object was a subsequent miss	OBJ	V	1	1.0197	LC-MISS	0.94556	UT	UT
322.0011	0.5	Valid Miss Obj: object that was a subsequent miss and that followed a valid cue	OBJ	V	1	1.0197	LC-MISS	0.94556	UT	UT
324.0014	1.0	Valid Other Greeble Cue: valid cue where following stimulus was an untested or no response greeble	GRE	V	1	0.78614	UT	UT	UT	UT
330.0014	0.5	Valid Other Greeble: stimulus that was an untested or no response greeble and that followed a valid cue	GRE	V	1	0.78614	UT	UT	UT	UT
332.0007	1.0	Valid Other Greeble Cue: valid cue where following stimulus was an untested or no response greeble	GRE	V	1	0.85883	UT	UT	UT	UT
338.0007	0.5	Valid Other Greeble: stimulus that was an untested or no response greeble and that followed a valid cue	GRE	V	1	0.85883	UT	UT	UT	UT
340.0017	1.0	Valid Miss Cue: valid cue where following object was a subsequent miss	OBJ	V	1	0.75275	HC-MISS	 1.4876	UT	UT
346.0017	0.5	Valid Miss Obj: object that was a subsequent miss and that followed a valid cue	OBJ	V	1	0.75275	HC-MISS	 1.4876	UT	UT
348.00199999999995	1.0	Invalid Miss Cue: invalid cue where following object was a subsequent miss	OBJ	NV	1	0.8942700000000001	LC-MISS	 1.2986	UT	UT
350.00199999999995	0.5	Invalid Miss Obj: object that was a subsequent miss and that followed an invalid cue	OBJ	NV	1	0.8942700000000001	LC-MISS	 1.2986	UT	UT
354.001	1.0	Valid LC-Hit Cue: valid cue where following object was a subsequent low confidence hit	OBJ	V	1	1.0131	LC-HIT	 1.4358	1	0.082896
358.001	0.5	Valid LC-Hit Obj: object that was a subsequent low confidence hit and that followed a valid cue	OBJ	V	1	1.0131	LC-HIT	 1.4358	1	0.082896
360.0012	1.0	Valid HC-Hit Cue: valid cue where following object was a subsequent high confidence hit	OBJ	V	1	0.75947	HC-HIT	 1.3163	0	1.0028
364.0012	0.5	Valid HC-Hit Obj: object that was a subsequent high confidence hit and that followed a valid cue	OBJ	V	1	0.75947	HC-HIT	 1.3163	0	1.0028
