onset	duration	trial_type	Object_Cond	Validity_Cond	Obj_Accuracy	Obj_Acc_RT	Subseq_Recog	Subseq_Recog_RT	Subseq_Source_Mem_Acc	Subseq_Source_Mem_Acc_RT
4.0006	1.0	Valid Other Obj Cue: valid cue where following stimulus was an untested or no response object	OBJ	V	1	0.55698	UT	UT	UT	UT
8.0006	0.5	Valid Other Obj: stimulus that was an untested or no response object and that followed a valid cue	OBJ	V	1	0.55698	UT	UT	UT	UT
10.001	1.0	Valid Miss Cue: valid cue where following object was a subsequent miss	OBJ	V	1	0.7123	LC-MISS	0.89275	UT	UT
12.001	0.5	Valid Miss Obj: object that was a subsequent miss and that followed a valid cue	OBJ	V	1	0.7123	LC-MISS	0.89275	UT	UT
14.0009	1.0	Valid Other Obj Cue: valid cue where following stimulus was an untested or no response object	OBJ	V	1	0.61752	UT	UT	UT	UT
18.0009	0.5	Valid Other Obj: stimulus that was an untested or no response object and that followed a valid cue	OBJ	V	1	0.61752	UT	UT	UT	UT
20.0013	1.0	Invalid Miss Cue: invalid cue where following object was a subsequent miss	OBJ	NV	1	0.91114	LC-MISS	0.74574	UT	UT
22.0013	0.5	Invalid Miss Obj: object that was a subsequent miss and that followed an invalid cue	OBJ	NV	1	0.91114	LC-MISS	0.74574	UT	UT
28.0012	1.0	Valid HC-Hit Cue: valid cue where following object was a subsequent high confidence hit	OBJ	V	1	0.7795	HC-HIT	 1.3717	1	0.38651
32.0012	0.5	Valid HC-Hit Obj: object that was a subsequent high confidence hit and that followed a valid cue	OBJ	V	1	0.7795	HC-HIT	 1.3717	1	0.38651
34.0017	1.0	Valid Miss Cue: valid cue where following object was a subsequent miss	OBJ	V	1	0.7477	LC-MISS	 1.0919	UT	UT
40.0017	0.5	Valid Miss Obj: object that was a subsequent miss and that followed a valid cue	OBJ	V	1	0.7477	LC-MISS	 1.0919	UT	UT
44.001000000000005	1.0	Valid Other Greeble Cue: valid cue where following stimulus was an untested or no response greeble	GRE	V	1	0.76566	UT	UT	UT	UT
46.001000000000005	0.5	Valid Other Greeble: stimulus that was an untested or no response greeble and that followed a valid cue	GRE	V	1	0.76566	UT	UT	UT	UT
48.0014	1.0	Valid HC-Hit Cue: valid cue where following object was a subsequent high confidence hit	OBJ	V	1	0.67676	HC-HIT	 1.0831	0	0.17575
54.0014	0.5	Valid HC-Hit Obj: object that was a subsequent high confidence hit and that followed a valid cue	OBJ	V	1	0.67676	HC-HIT	 1.0831	0	0.17575
56.0017	1.0	Valid Other Greeble Cue: valid cue where following stimulus was an untested or no response greeble	GRE	V	1	0.66099	UT	UT	UT	UT
62.0017	0.5	Valid Other Greeble: stimulus that was an untested or no response greeble and that followed a valid cue	GRE	V	1	0.66099	UT	UT	UT	UT
64.0013	1.0	Valid Other Greeble Cue: valid cue where following stimulus was an untested or no response greeble	GRE	V	1	0.7803399999999999	UT	UT	UT	UT
70.0013	0.5	Valid Other Greeble: stimulus that was an untested or no response greeble and that followed a valid cue	GRE	V	1	0.7803399999999999	UT	UT	UT	UT
74.0018	1.0	Invalid HC-Hit Cue: invalid cue where following object was a subsequent high confidence hit	OBJ	NV	1	0.9626600000000001	HC-HIT	 1.0353	0	1.302
78.0018	0.5	Invalid HC-Hit Obj: object that was a subsequent high confidence hit and that followed an invalid cue	OBJ	NV	1	0.9626600000000001	HC-HIT	 1.0353	0	1.302
80.0011	1.0	Valid Miss Cue: valid cue where following object was a subsequent miss	OBJ	V	1	0.7944100000000001	LC-MISS	 2.9036	UT	UT
86.0011	0.5	Valid Miss Obj: object that was a subsequent miss and that followed a valid cue	OBJ	V	1	0.7944100000000001	LC-MISS	 2.9036	UT	UT
88.0018	1.0	Valid LC-Hit Cue: valid cue where following object was a subsequent low confidence hit	OBJ	V	1	0.78214	LC-HIT	 2.2646	1	0.10297
90.0018	0.5	Valid LC-Hit Obj: object that was a subsequent low confidence hit and that followed a valid cue	OBJ	V	1	0.78214	LC-HIT	 2.2646	1	0.10297
92.0012	1.0	Valid Miss Cue: valid cue where following object was a subsequent miss	OBJ	V	1	1.03	LC-MISS	0.99882	UT	UT
98.0012	0.5	Valid Miss Obj: object that was a subsequent miss and that followed a valid cue	OBJ	V	1	1.03	LC-MISS	0.99882	UT	UT
100.0017	1.0	Valid Other Obj Cue: valid cue where following stimulus was an untested or no response object	OBJ	V	1	0.74133	UT	UT	UT	UT
106.0017	0.5	Valid Other Obj: stimulus that was an untested or no response object and that followed a valid cue	OBJ	V	1	0.74133	UT	UT	UT	UT
108.0017	1.0	Valid HC-Hit Cue: valid cue where following object was a subsequent high confidence hit	OBJ	V	1	0.70392	HC-HIT	 1.0046	1	0.23693
112.0017	0.5	Valid HC-Hit Obj: object that was a subsequent high confidence hit and that followed a valid cue	OBJ	V	1	0.70392	HC-HIT	 1.0046	1	0.23693
114.0007	1.0	Valid Other Greeble Cue: valid cue where following stimulus was an untested or no response greeble	GRE	V	1	1.0548	UT	UT	UT	UT
120.0007	0.5	Valid Other Greeble: stimulus that was an untested or no response greeble and that followed a valid cue	GRE	V	1	1.0548	UT	UT	UT	UT
122.0015	1.0	Valid Miss Cue: valid cue where following object was a subsequent miss	OBJ	V	1	0.64825	LC-MISS	 1.3007	UT	UT
126.0015	0.5	Valid Miss Obj: object that was a subsequent miss and that followed a valid cue	OBJ	V	1	0.64825	LC-MISS	 1.3007	UT	UT
128.0008	1.0	Invalid LC-Hit Cue: invalid cue where following object was a subsequent low confidence hit	OBJ	NV	1	0.64063	LC-HIT	 2.5109	1	0.59164
134.0008	0.5	Invalid LC-Hit Obj: object that was a subsequent low confidence hit and that followed an invalid cue	OBJ	NV	1	0.64063	LC-HIT	 2.5109	1	0.59164
138.0008	1.0	Valid Miss Cue: valid cue where following object was a subsequent miss	OBJ	V	1	0.61745	LC-MISS	0.85226	UT	UT
140.0008	0.5	Valid Miss Obj: object that was a subsequent miss and that followed a valid cue	OBJ	V	1	0.61745	LC-MISS	0.85226	UT	UT
142.0018	1.0	Valid LC-Hit Cue: valid cue where following object was a subsequent low confidence hit	OBJ	V	1	0.98339	LC-HIT	 1.4296	1	0.052819
144.0018	0.5	Valid LC-Hit Obj: object that was a subsequent low confidence hit and that followed a valid cue	OBJ	V	1	0.98339	LC-HIT	 1.4296	1	0.052819
146.0015	1.0	Valid Other Greeble Cue: valid cue where following stimulus was an untested or no response greeble	GRE	V	1	0.75011	UT	UT	UT	UT
152.0015	0.5	Valid Other Greeble: stimulus that was an untested or no response greeble and that followed a valid cue	GRE	V	1	0.75011	UT	UT	UT	UT
154.0019	1.0	Valid Miss Cue: valid cue where following object was a subsequent miss	OBJ	V	1	0.76756	LC-MISS	 2.3449	UT	UT
158.0019	0.5	Valid Miss Obj: object that was a subsequent miss and that followed a valid cue	OBJ	V	1	0.76756	LC-MISS	 2.3449	UT	UT
162.0012	1.0	Valid Other Obj Cue: valid cue where following stimulus was an untested or no response object	OBJ	V	1	1.0486	UT	UT	UT	UT
164.0012	0.5	Valid Other Obj: stimulus that was an untested or no response object and that followed a valid cue	OBJ	V	1	1.0486	UT	UT	UT	UT
166.0017	1.0	Valid Other Greeble Cue: valid cue where following stimulus was an untested or no response greeble	GRE	V	1	0.7085600000000001	UT	UT	UT	UT
168.0017	0.5	Valid Other Greeble: stimulus that was an untested or no response greeble and that followed a valid cue	GRE	V	1	0.7085600000000001	UT	UT	UT	UT
170.0012	1.0	Valid Other Greeble Cue: valid cue where following stimulus was an untested or no response greeble	GRE	V	1	0.6522100000000001	UT	UT	UT	UT
176.0012	0.5	Valid Other Greeble: stimulus that was an untested or no response greeble and that followed a valid cue	GRE	V	1	0.6522100000000001	UT	UT	UT	UT
178.0009	1.0	Invalid Miss Cue: invalid cue where following object was a subsequent miss	OBJ	NV	1	0.9401200000000001	LC-MISS	0.86112	UT	UT
184.0009	0.5	Invalid Miss Obj: object that was a subsequent miss and that followed an invalid cue	OBJ	NV	1	0.9401200000000001	LC-MISS	0.86112	UT	UT
186.0019	1.0	Valid Miss Cue: valid cue where following object was a subsequent miss	OBJ	V	1	0.68023	LC-MISS	 2.1101	UT	UT
188.0019	0.5	Valid Miss Obj: object that was a subsequent miss and that followed a valid cue	OBJ	V	1	0.68023	LC-MISS	 2.1101	UT	UT
190.0012	1.0	Valid Miss Cue: valid cue where following object was a subsequent miss	OBJ	V	1	0.77149	LC-MISS	 1.2369	UT	UT
192.0012	0.5	Valid Miss Obj: object that was a subsequent miss and that followed a valid cue	OBJ	V	1	0.77149	LC-MISS	 1.2369	UT	UT
196.0008	1.0	Valid Other Greeble Cue: valid cue where following stimulus was an untested or no response greeble	GRE	V	1	0.67218	UT	UT	UT	UT
202.0008	0.5	Valid Other Greeble: stimulus that was an untested or no response greeble and that followed a valid cue	GRE	V	1	0.67218	UT	UT	UT	UT
204.0011	1.0	Valid Miss Cue: valid cue where following object was a subsequent miss	OBJ	V	1	0.8102600000000001	LC-MISS	 0.8973	UT	UT
208.0011	0.5	Valid Miss Obj: object that was a subsequent miss and that followed a valid cue	OBJ	V	1	0.8102600000000001	LC-MISS	 0.8973	UT	UT
212.00099999999998	1.0	Valid Miss Cue: valid cue where following object was a subsequent miss	OBJ	V	1	0.8591	LC-MISS	 3.3796	UT	UT
216.00099999999998	0.5	Valid Miss Obj: object that was a subsequent miss and that followed a valid cue	OBJ	V	1	0.8591	LC-MISS	 3.3796	UT	UT
218.00099999999998	1.0	Valid Other Greeble Cue: valid cue where following stimulus was an untested or no response greeble	GRE	V	1	0.701	UT	UT	UT	UT
222.00099999999998	0.5	Valid Other Greeble: stimulus that was an untested or no response greeble and that followed a valid cue	GRE	V	1	0.701	UT	UT	UT	UT
224.0014	1.0	Invalid Other Greeble Cue: invalid cue where following stimulus was an untested or no response greeble	GRE	NV	1	0.9089	UT	UT	UT	UT
228.0014	0.5	Invalid Other Greeble: stimulus that was an untested or no response greeble and that followed a invalid cue	GRE	NV	1	0.9089	UT	UT	UT	UT
230.00099999999998	1.0	Valid LC-Hit Cue: valid cue where following object was a subsequent low confidence hit	OBJ	V	1	1.0075	LC-HIT	 1.7498	0	1.919
234.00099999999998	0.5	Valid LC-Hit Obj: object that was a subsequent low confidence hit and that followed a valid cue	OBJ	V	1	1.0075	LC-HIT	 1.7498	0	1.919
240.0014	1.0	Valid LC-Hit Cue: valid cue where following object was a subsequent low confidence hit	OBJ	V	1	0.8206	LC-HIT	 1.1942	0	0.23461
244.0014	0.5	Valid LC-Hit Obj: object that was a subsequent low confidence hit and that followed a valid cue	OBJ	V	1	0.8206	LC-HIT	 1.1942	0	0.23461
246.0017	1.0	Invalid Miss Cue: invalid cue where following object was a subsequent miss	OBJ	NV	1	0.9501799999999999	LC-MISS	0.97576	UT	UT
250.0017	0.5	Invalid Miss Obj: object that was a subsequent miss and that followed an invalid cue	OBJ	NV	1	0.9501799999999999	LC-MISS	0.97576	UT	UT
252.0016	1.0	Valid Miss Cue: valid cue where following object was a subsequent miss	OBJ	V	1	1.1521	LC-MISS	 2.6652	UT	UT
256.0016	0.5	Valid Miss Obj: object that was a subsequent miss and that followed a valid cue	OBJ	V	1	1.1521	LC-MISS	 2.6652	UT	UT
258.0014	1.0	Valid Other Greeble Cue: valid cue where following stimulus was an untested or no response greeble	GRE	V	1	0.86344	UT	UT	UT	UT
264.0014	0.5	Valid Other Greeble: stimulus that was an untested or no response greeble and that followed a valid cue	GRE	V	1	0.86344	UT	UT	UT	UT
266.0009	1.0	Valid Miss Cue: valid cue where following object was a subsequent miss	OBJ	V	1	0.9007799999999999	LC-MISS	 1.2607	UT	UT
268.0009	0.5	Valid Miss Obj: object that was a subsequent miss and that followed a valid cue	OBJ	V	1	0.9007799999999999	LC-MISS	 1.2607	UT	UT
270.0014	1.0	Invalid Miss Cue: invalid cue where following object was a subsequent miss	OBJ	NV	1	1.2151	LC-MISS	 1.3989	UT	UT
272.0014	0.5	Invalid Miss Obj: object that was a subsequent miss and that followed an invalid cue	OBJ	NV	1	1.2151	LC-MISS	 1.3989	UT	UT
276.001	1.0	Valid Other Obj Cue: valid cue where following stimulus was an untested or no response object	OBJ	V	1	0.74547	UT	UT	UT	UT
278.001	0.5	Valid Other Obj: stimulus that was an untested or no response object and that followed a valid cue	OBJ	V	1	0.74547	UT	UT	UT	UT
280.0015	1.0	Valid Other Greeble Cue: valid cue where following stimulus was an untested or no response greeble	GRE	V	1	0.8297200000000001	UT	UT	UT	UT
282.0015	0.5	Valid Other Greeble: stimulus that was an untested or no response greeble and that followed a valid cue	GRE	V	1	0.8297200000000001	UT	UT	UT	UT
284.0009	1.0	Valid Miss Cue: valid cue where following object was a subsequent miss	OBJ	V	1	0.80429	LC-MISS	0.74213	UT	UT
290.0009	0.5	Valid Miss Obj: object that was a subsequent miss and that followed a valid cue	OBJ	V	1	0.80429	LC-MISS	0.74213	UT	UT
292.0012	1.0	Valid Miss Cue: valid cue where following object was a subsequent miss	OBJ	V	1	0.5515800000000001	LC-MISS	 1.0648	UT	UT
294.0012	0.5	Valid Miss Obj: object that was a subsequent miss and that followed a valid cue	OBJ	V	1	0.5515800000000001	LC-MISS	 1.0648	UT	UT
296.0009	1.0	Valid Miss Cue: valid cue where following object was a subsequent miss	OBJ	V	1	0.67482	LC-MISS	0.73745	UT	UT
300.0009	0.5	Valid Miss Obj: object that was a subsequent miss and that followed a valid cue	OBJ	V	1	0.67482	LC-MISS	0.73745	UT	UT
302.0012	1.0	Invalid HC-Hit Cue: invalid cue where following object was a subsequent high confidence hit	OBJ	NV	1	0.67605	HC-HIT	 1.2122	0	0.64045
306.0012	0.5	Invalid HC-Hit Obj: object that was a subsequent high confidence hit and that followed an invalid cue	OBJ	NV	1	0.67605	HC-HIT	 1.2122	0	0.64045
310.0014	1.0	Valid Miss Cue: valid cue where following object was a subsequent miss	OBJ	V	1	0.7376	LC-MISS	 1.5351	UT	UT
316.0014	0.5	Valid Miss Obj: object that was a subsequent miss and that followed a valid cue	OBJ	V	1	0.7376	LC-MISS	 1.5351	UT	UT
318.0011	1.0	Valid Miss Cue: valid cue where following object was a subsequent miss	OBJ	V	1	0.72531	LC-MISS	0.87636	UT	UT
320.0011	0.5	Valid Miss Obj: object that was a subsequent miss and that followed a valid cue	OBJ	V	1	0.72531	LC-MISS	0.87636	UT	UT
324.002	1.0	Invalid Other Greeble Cue: invalid cue where following stimulus was an untested or no response greeble	GRE	NV	1	1.0238	UT	UT	UT	UT
326.002	0.5	Invalid Other Greeble: stimulus that was an untested or no response greeble and that followed a invalid cue	GRE	NV	1	1.0238	UT	UT	UT	UT
328.0011	1.0	Valid Other Greeble Cue: valid cue where following stimulus was an untested or no response greeble	GRE	V	1	0.69455	UT	UT	UT	UT
334.0011	0.5	Valid Other Greeble: stimulus that was an untested or no response greeble and that followed a valid cue	GRE	V	1	0.69455	UT	UT	UT	UT
338.001	1.0	Valid Other Greeble Cue: valid cue where following stimulus was an untested or no response greeble	GRE	V	1	0.6166699999999999	UT	UT	UT	UT
340.001	0.5	Valid Other Greeble: stimulus that was an untested or no response greeble and that followed a valid cue	GRE	V	1	0.6166699999999999	UT	UT	UT	UT
342.0017	1.0	Valid Miss Cue: valid cue where following object was a subsequent miss	OBJ	V	1	0.6551600000000001	LC-MISS	0.85689	UT	UT
348.0017	0.5	Valid Miss Obj: object that was a subsequent miss and that followed a valid cue	OBJ	V	1	0.6551600000000001	LC-MISS	0.85689	UT	UT
350.0009	1.0	Valid Miss Cue: valid cue where following object was a subsequent miss	OBJ	V	1	1.4980000000000002	LC-MISS	 1.9099	UT	UT
354.0009	0.5	Valid Miss Obj: object that was a subsequent miss and that followed a valid cue	OBJ	V	1	1.4980000000000002	LC-MISS	 1.9099	UT	UT
356.0012	1.0	Valid Other Greeble Cue: valid cue where following stimulus was an untested or no response greeble	GRE	V	1	0.72292	UT	UT	UT	UT
360.0012	0.5	Valid Other Greeble: stimulus that was an untested or no response greeble and that followed a valid cue	GRE	V	1	0.72292	UT	UT	UT	UT
362.0015	1.0	Invalid LC-Hit Cue: invalid cue where following object was a subsequent low confidence hit	OBJ	NV	1	1.1263	LC-HIT	 1.7179	1	0.12896
364.0015	0.5	Invalid LC-Hit Obj: object that was a subsequent low confidence hit and that followed an invalid cue	OBJ	NV	1	1.1263	LC-HIT	 1.7179	1	0.12896
