onset	duration	trial_number	event_type	executed_movement	correct_movement	shown_stimulus	included_trial	reason_for_exclusion
11.9799999999814	23.02	1	stimulus	n/a	n/a	white X	0	test trial
35	9.50221589999273	1	stimulus	n/a	n/a	red X	0	test trial
36.0950380000286	0	1	finger press	2	2	n/a	0	test trial
36.6564297999721	0	1	finger press	1	1	n/a	0	test trial
37.2641565999947	0	1	finger press	2	2	n/a	0	test trial
37.9663221999072	0	1	finger press	3	3	n/a	0	test trial
38.6747573998291	0	1	finger press	2	2	n/a	0	test trial
39.47005909984	0	1	finger press	1	1	n/a	0	test trial
40.4004087999929	0	1	finger press	3	3	n/a	0	test trial
40.9924808999058	0	1	finger press	2	2	n/a	0	test trial
41.6727452999912	0	1	finger press	4	4	n/a	0	test trial
42.416174300015	0	1	finger press	2	2	n/a	0	test trial
43.0462994999252	0	1	finger press	4	4	n/a	0	test trial
43.8709487998858	0	1	finger press	1	1	n/a	0	test trial
44.5400000000373	5	1	stimulus	n/a	n/a	white X	0	test trial
60.3799999998882	21	2	stimulus	n/a	n/a	white X	1	n/a
81.3554805000313	9.50462439982221	2	stimulus	n/a	n/a	red X	1	n/a
82.209731800016	0	2	finger press	2	2	n/a	1	n/a
82.8144868998788	0	2	finger press	1	1	n/a	1	n/a
83.4391190998722	0	2	finger press	2	2	n/a	1	n/a
84.06230949983	0	2	finger press	3	3	n/a	1	n/a
84.7765342998318	0	2	finger press	2	2	n/a	1	n/a
85.5510374000296	0	2	finger press	1	1	n/a	1	n/a
86.3339720000513	0	2	finger press	3	3	n/a	1	n/a
86.9100342998281	0	2	finger press	2	2	n/a	1	n/a
87.9065067998599	0	2	finger press	4	4	n/a	1	n/a
88.497932799859	0	2	finger press	2	2	n/a	1	n/a
89.0910499000456	0	2	finger press	4	4	n/a	1	n/a
89.8885037999135	0	2	finger press	1	1	n/a	1	n/a
90.8999999999069	5	2	stimulus	n/a	n/a	white X	1	n/a
101.899999999907	23.02	3	stimulus	n/a	n/a	white X	1	n/a
124.880891700042	9.50284579978324	3	stimulus	n/a	n/a	red X	1	n/a
125.69007589994	0	3	finger press	2	2	n/a	1	n/a
126.281317800051	0	3	finger press	1	1	n/a	1	n/a
126.961320000002	0	3	finger press	2	2	n/a	1	n/a
127.586818999844	0	3	finger press	3	3	n/a	1	n/a
128.279204600025	0	3	finger press	2	2	n/a	1	n/a
129.273146799998	0	3	finger press	1	1	n/a	1	n/a
129.886167899938	0	3	finger press	3	3	n/a	1	n/a
130.587453400018	0	3	finger press	2	2	n/a	1	n/a
131.274967599893	0	3	finger press	4	4	n/a	1	n/a
131.952553099953	0	3	finger press	2	2	n/a	1	n/a
132.598809199873	0	3	finger press	4	4	n/a	1	n/a
133.321279800031	0	3	finger press	1	1	n/a	1	n/a
134.419999999925	5	3	stimulus	n/a	n/a	white X	1	n/a
148.5	22.02	4	stimulus	n/a	n/a	white X	1	n/a
170.475981999887	9.50269330013543	4	stimulus	n/a	n/a	red X	1	n/a
171.129221299896	0	4	finger press	2	2	n/a	1	n/a
171.755107099889	0	4	finger press	1	1	n/a	1	n/a
172.385631100042	0	4	finger press	2	2	n/a	1	n/a
173.030750300037	0	4	finger press	3	3	n/a	1	n/a
173.65581139992	0	4	finger press	2	2	n/a	1	n/a
174.26225449983	0	4	finger press	1	1	n/a	1	n/a
175.626815999858	0	4	finger press	3	3	n/a	1	n/a
176.302102299873	0	4	finger press	2	2	n/a	1	n/a
177.061534099979	0	4	finger press	4	4	n/a	1	n/a
177.75295159989	0	4	finger press	2	2	n/a	1	n/a
178.370831599925	0	4	finger press	4	4	n/a	1	n/a
179.103716299869	0	4	finger press	1	1	n/a	1	n/a
180.020000000019	5	4	stimulus	n/a	n/a	white X	1	n/a
191.300000000047	22.02	5	stimulus	n/a	n/a	white X	1	n/a
213.284645299893	9.50339379999787	5	stimulus	n/a	n/a	red X	1	n/a
214.076640899992	0	5	finger press	2	2	n/a	1	n/a
214.649028899847	0	5	finger press	1	1	n/a	1	n/a
215.30604299996	0	5	finger press	2	2	n/a	1	n/a
215.897465799935	0	5	finger press	3	3	n/a	1	n/a
216.562165699899	0	5	finger press	2	2	n/a	1	n/a
217.235349899856	0	5	finger press	1	1	n/a	1	n/a
217.873833799968	0	5	finger press	3	3	n/a	1	n/a
218.526094699977	0	5	finger press	2	2	n/a	1	n/a
219.239954499993	0	5	finger press	4	4	n/a	1	n/a
219.913217799971	0	5	finger press	2	2	n/a	1	n/a
220.58221929986	0	5	finger press	4	4	n/a	1	n/a
221.25393259991	0	5	finger press	1	1	n/a	1	n/a
222.820000000065	5	5	stimulus	n/a	n/a	white X	1	n/a
236.659999999916	23	6	stimulus	n/a	n/a	white X	1	n/a
259.624807999935	9.50501399999484	6	stimulus	n/a	n/a	red X	1	n/a
260.199065799825	0	6	finger press	2	2	n/a	1	n/a
260.855938999914	0	6	finger press	1	1	n/a	1	n/a
261.499608299928	0	6	finger press	2	2	n/a	1	n/a
262.12210599985	0	6	finger press	3	3	n/a	1	n/a
262.790511999978	0	6	finger press	2	2	n/a	1	n/a
263.497869499959	0	6	finger press	1	1	n/a	1	n/a
264.197952299844	0	6	finger press	3	3	n/a	1	n/a
264.906934899976	0	6	finger press	2	2	n/a	1	n/a
265.653484199895	0	6	finger press	4	4	n/a	1	n/a
266.393199000042	0	6	finger press	2	2	n/a	1	n/a
267.072144399863	0	6	finger press	4	4	n/a	1	n/a
267.735948399873	0	6	finger press	1	1	n/a	1	n/a
269.159999999916	5	6	stimulus	n/a	n/a	white X	1	n/a
280.479999999981	22.02	7	stimulus	n/a	n/a	white X	1	n/a
302.458162999945	9.50285389996134	7	stimulus	n/a	n/a	red X	1	n/a
303.133839299902	0	7	finger press	2	2	n/a	1	n/a
303.76909239986	0	7	finger press	1	1	n/a	1	n/a
304.417774699861	0	7	finger press	2	2	n/a	1	n/a
305.003053199966	0	7	finger press	3	3	n/a	1	n/a
305.697378899902	0	7	finger press	2	2	n/a	1	n/a
306.327847099863	0	7	finger press	1	1	n/a	1	n/a
306.975868599955	0	7	finger press	3	3	n/a	1	n/a
307.626988000004	0	7	finger press	2	2	n/a	1	n/a
308.29372249986	0	7	finger press	4	4	n/a	1	n/a
308.965873099864	0	7	finger press	2	2	n/a	1	n/a
309.650650099851	0	7	finger press	4	4	n/a	1	n/a
310.390602099942	0	7	finger press	1	1	n/a	1	n/a
312	5	7	stimulus	n/a	n/a	white X	1	n/a
319.959999999963	22	8	stimulus	n/a	n/a	white X	1	n/a
341.928171799984	9.50273379986174	8	stimulus	n/a	n/a	red X	1	n/a
342.616261999821	0	8	finger press	2	2	n/a	1	n/a
343.250474399887	0	8	finger press	1	1	n/a	1	n/a
343.901256399928	0	8	finger press	2	2	n/a	1	n/a
344.533827899955	0	8	finger press	3	3	n/a	1	n/a
345.209960599896	0	8	finger press	2	2	n/a	1	n/a
345.866593299899	0	8	finger press	1	1	n/a	1	n/a
346.503604399972	0	8	finger press	3	3	n/a	1	n/a
347.199137500022	0	8	finger press	2	2	n/a	1	n/a
347.926897599827	0	8	finger press	4	4	n/a	1	n/a
348.567074900027	0	8	finger press	2	2	n/a	1	n/a
349.255749600008	0	8	finger press	4	4	n/a	1	n/a
349.89713659999	0	8	finger press	1	1	n/a	1	n/a
351.459999999963	5	8	stimulus	n/a	n/a	white X	1	n/a
358.780000000028	24	9	stimulus	n/a	n/a	white X	0	erroneous trial
382.756616399856	16.5479489001445	9	stimulus	n/a	n/a	red X	0	erroneous trial
383.462732099928	0	9	finger press	2	2	n/a	0	erroneous trial
384.096358099952	0	9	finger press	1	1	n/a	0	erroneous trial
384.719712999882	0	9	finger press	2	2	n/a	0	erroneous trial
385.407200499903	0	9	finger press	1	3	n/a	0	erroneous trial
386.086507800035	0	9	finger press	3	2	n/a	0	erroneous trial
386.925454499898	0	9	finger press	2	1	n/a	0	erroneous trial
387.713928599842	0	9	finger press	4	3	n/a	0	erroneous trial
388.446351299994	0	9	finger press	2	2	n/a	0	erroneous trial
389.169927799841	0	9	finger press	4	4	n/a	0	erroneous trial
389.873589399969	0	9	finger press	1	2	n/a	0	erroneous trial
399.303240099922	0	9	finger press	2	4	n/a	0	erroneous trial
399.320000000065	5	9	stimulus	n/a	n/a	white X	0	erroneous trial
414.939999999944	22.02	10	stimulus	n/a	n/a	white X	1	n/a
436.929895299952	9.50279819988646	10	stimulus	n/a	n/a	red X	1	n/a
437.833594499854	0	10	finger press	2	2	n/a	1	n/a
438.406317200046	0	10	finger press	1	1	n/a	1	n/a
439.053028199822	0	10	finger press	2	2	n/a	1	n/a
439.653760100016	0	10	finger press	3	3	n/a	1	n/a
440.338756100042	0	10	finger press	2	2	n/a	1	n/a
440.992872499861	0	10	finger press	1	1	n/a	1	n/a
441.601381599903	0	10	finger press	3	3	n/a	1	n/a
442.222390299896	0	10	finger press	2	2	n/a	1	n/a
442.887704199878	0	10	finger press	4	4	n/a	1	n/a
443.536294999998	0	10	finger press	2	2	n/a	1	n/a
444.160524899838	0	10	finger press	4	4	n/a	1	n/a
444.793361400021	0	10	finger press	1	1	n/a	1	n/a
446.459999999963	5	10	stimulus	n/a	n/a	white X	1	n/a
456.580000000075	25.02	11	stimulus	n/a	n/a	white X	1	n/a
481.567535500042	9.5025839000009	11	stimulus	n/a	n/a	red X	1	n/a
482.477257799823	0	11	finger press	2	2	n/a	1	n/a
483.071871699998	0	11	finger press	1	1	n/a	1	n/a
483.70319749997	0	11	finger press	2	2	n/a	1	n/a
484.303526100004	0	11	finger press	3	3	n/a	1	n/a
484.974824100034	0	11	finger press	2	2	n/a	1	n/a
485.681478200015	0	11	finger press	1	1	n/a	1	n/a
486.365067899926	0	11	finger press	3	3	n/a	1	n/a
487.06655969983	0	11	finger press	2	2	n/a	1	n/a
487.773389199981	0	11	finger press	4	4	n/a	1	n/a
488.469010100001	0	11	finger press	2	2	n/a	1	n/a
489.151722599985	0	11	finger press	4	4	n/a	1	n/a
489.918428099947	0	11	finger press	1	1	n/a	1	n/a
491.100000000093	5	11	stimulus	n/a	n/a	white X	1	n/a
