onset	duration	trial_type	TrialType	Stimulus	SSD	Response	response_time	CorrectGo	SuccStop
0.000	1.500	junk	0	1	0.000	50	0.494	1	0
2.000	1.500	go	0	1	0.000	50	0.416	1	0
4.250	1.500	go	0	0	0.000	49	0.469	1	0
8.625	1.500	failed stop	1	0	0.335	49	0.510	1	0
12.375	1.500	go	0	0	0.000	49	0.486	1	0
15.250	1.500	go	0	1	0.000	50	0.427	1	0
18.250	1.500	failed stop	1	0	0.215	49	0.347	1	0
21.250	1.500	go	0	1	0.000	50	0.442	1	0
23.375	1.500	go	0	1	0.000	50	0.469	1	0
26.375	1.500	go	0	1	0.000	50	0.436	1	0
28.625	1.500	go	0	0	0.000	49	0.730	1	0
31.250	1.500	successful stop	1	0	0.255	0	0.000	0	1
34.875	1.500	failed stop	1	0	0.215	49	0.503	1	0
38.125	1.500	go	0	0	0.000	49	0.508	1	0
40.250	1.500	go	0	1	0.000	50	0.527	1	0
42.250	1.500	go	0	1	0.000	50	0.478	1	0
45.250	1.500	go	0	0	0.000	49	0.438	1	0
47.500	1.500	go	0	1	0.000	50	0.460	1	0
49.500	1.500	go	0	0	0.000	49	0.523	1	0
52.875	1.500	failed stop	1	1	0.295	50	0.428	1	0
55.750	1.500	go	0	1	0.000	50	0.552	1	0
58.375	1.500	go	0	0	0.000	49	0.543	1	0
62.500	1.500	failed stop	1	1	0.335	50	0.441	1	0
64.875	1.500	go	0	0	0.000	49	0.506	1	0
69.125	1.500	go	0	0	0.000	49	0.543	1	0
71.125	1.500	go	0	0	0.000	49	0.455	1	0
73.250	1.500	go	0	1	0.000	50	0.431	1	0
76.250	1.500	failed stop	1	1	0.335	50	0.393	1	0
80.125	1.500	go	0	1	0.000	50	0.413	1	0
82.500	1.500	failed stop	1	1	0.255	50	0.390	1	0
85.125	1.500	go	0	0	0.000	49	0.324	1	0
87.750	1.500	go	0	0	0.000	49	0.451	1	0
90.250	1.500	go	0	1	0.000	50	0.582	1	0
92.375	1.500	go	0	0	0.000	49	0.545	1	0
94.375	1.500	successful stop	1	0	0.255	0	0.000	0	1
97.625	1.500	go	0	1	0.000	50	0.294	1	0
101.000	1.500	failed stop	1	0	0.295	49	0.343	1	0
105.750	1.500	go	0	1	0.000	50	0.400	1	0
108.875	1.500	go	0	1	0.000	50	0.466	1	0
111.250	1.500	go	0	0	0.000	49	0.467	1	0
114.250	1.500	successful stop	1	0	0.255	0	0.000	0	1
118.000	1.500	go	0	0	0.000	49	0.572	1	0
120.125	1.500	go	0	1	0.000	50	0.390	1	0
122.625	1.500	go	0	1	0.000	50	0.498	1	0
125.250	1.500	go	0	0	0.000	49	0.474	1	0
129.125	1.500	go	0	1	0.000	50	0.357	1	0
131.250	1.500	go	0	1	0.000	50	0.400	1	0
133.375	1.500	failed stop	1	0	0.255	49	0.434	1	0
136.000	1.500	go	0	1	0.000	50	0.305	1	0
139.125	1.500	go	0	1	0.000	50	0.299	1	0
142.000	1.500	failed stop	1	0	0.335	49	0.584	1	0
144.125	1.500	go	0	0	0.000	49	0.514	1	0
146.625	1.500	go	0	0	0.000	49	0.582	1	0
149.250	1.500	failed stop	1	0	0.295	49	0.381	1	0
151.875	1.500	go	0	1	0.000	50	0.404	1	0
154.250	1.500	go	0	1	0.000	50	0.404	1	0
158.375	1.500	successful stop	1	0	0.335	0	0.000	0	1
162.375	1.500	go	0	1	0.000	50	0.445	1	0
166.125	1.500	go	0	1	0.000	50	0.527	1	0
169.000	1.500	go	0	0	0.000	49	0.491	1	0
171.000	1.500	go	0	1	0.000	50	0.459	1	0
173.625	1.500	failed stop	1	0	0.295	49	0.466	1	0
176.500	1.500	go	0	0	0.000	49	0.454	1	0
178.500	1.500	go	0	1	0.000	50	0.438	1	0
180.500	1.500	go	0	0	0.000	49	0.574	1	0
182.750	1.500	go	0	0	0.000	49	0.443	1	0
185.750	1.500	go	0	1	0.000	50	0.450	1	0
189.750	1.500	failed stop	1	1	0.215	50	0.306	1	0
192.250	1.500	failed stop	1	1	0.215	50	0.461	1	0
194.750	1.500	go	0	0	0.000	49	0.361	1	0
197.375	1.500	go	0	0	0.000	49	0.456	1	0
200.250	1.500	go	0	1	0.000	50	0.628	1	0
202.875	1.500	failed stop	1	1	0.295	50	0.379	1	0
206.000	1.500	go	0	0	0.000	49	0.357	1	0
210.625	1.500	go	0	0	0.000	49	0.371	1	0
212.875	1.500	go	0	1	0.000	50	0.585	1	0
215.375	1.500	go	0	0	0.000	49	0.356	1	0
218.250	1.500	failed stop	1	1	0.335	50	0.401	1	0
220.375	1.500	go	0	1	0.000	50	0.388	1	0
222.750	1.500	go	0	0	0.000	49	0.404	1	0
225.625	1.500	failed stop	1	1	0.295	50	0.553	1	0
229.500	1.500	go	0	1	0.000	50	0.597	1	0
233.375	1.500	go	0	0	0.000	49	0.450	1	0
236.000	1.500	go	0	0	0.000	49	0.392	1	0
238.000	1.500	failed stop	1	1	0.335	50	0.528	1	0
242.750	1.500	go	0	0	0.000	49	0.345	1	0
246.125	1.500	go	0	1	0.000	50	0.505	1	0
248.625	1.500	go	0	0	0.000	49	0.453	1	0
250.750	1.500	go	0	0	0.000	49	0.416	1	0
256.000	1.500	successful stop	1	1	0.255	0	0.000	0	1
260.750	1.500	go	0	0	0.000	49	0.390	1	0
262.875	1.500	go	0	1	0.000	50	0.497	1	0
265.000	1.500	go	0	0	0.000	49	0.420	1	0
267.250	1.500	go	0	0	0.000	49	0.417	1	0
270.000	1.500	go	0	1	0.000	50	0.763	1	0
273.250	1.500	failed stop	1	1	0.335	50	0.528	1	0
275.750	1.500	failed stop	1	0	0.295	49	0.484	1	0
278.000	1.500	go	0	1	0.000	50	0.361	1	0
280.250	1.500	go	0	0	0.000	49	0.327	1	0
282.500	1.500	go	0	1	0.000	50	0.340	1	0
284.500	1.500	go	0	0	0.000	49	0.524	1	0
287.000	1.500	failed stop	1	0	0.215	49	0.424	1	0
289.125	1.500	go	0	1	0.000	50	0.546	1	0
291.250	1.500	go	0	1	0.000	50	0.461	1	0
293.375	1.500	go	0	1	0.000	50	0.415	1	0
295.625	1.500	go	0	1	0.000	50	0.461	1	0
297.875	1.500	go	0	0	0.000	49	0.475	1	0
299.875	1.500	successful stop	1	0	0.255	0	0.000	0	1
302.625	1.500	go	0	0	0.000	49	0.684	1	0
307.000	1.500	failed stop	1	0	0.295	49	0.420	1	0
311.625	1.500	go	0	1	0.000	50	0.490	1	0
314.125	1.500	go	0	1	0.000	50	0.406	1	0
316.875	1.500	go	0	0	0.000	49	0.567	1	0
320.000	1.500	go	0	0	0.000	49	0.530	1	0
322.000	1.500	go	0	1	0.000	50	0.546	1	0
325.750	1.500	successful stop	1	1	0.215	0	0.000	0	1
329.875	1.500	failed stop	1	1	0.215	50	0.374	1	0
332.750	1.500	go	0	1	0.000	50	0.554	1	0
334.750	1.500	go	0	0	0.000	49	0.570	1	0
338.625	1.500	go	0	0	0.000	49	0.470	1	0
342.000	1.500	failed stop	1	1	0.215	50	0.479	1	0
344.875	1.500	go	0	0	0.000	49	0.539	1	0
346.875	1.500	go	0	1	0.000	50	0.459	1	0
350.125	1.500	go	0	0	0.000	49	0.504	1	0
352.125	1.500	failed stop	1	1	0.255	50	0.488	1	0
354.375	1.500	go	0	1	0.000	50	0.757	1	0
357.375	1.500	go	0	0	0.000	49	0.381	1	0
359.375	1.500	go	0	0	0.000	49	0.461	1	0
