onset	duration	trial_type	Object_Cond	Validity_Cond	Obj_Accuracy	Obj_Acc_RT	Subseq_Recog	Subseq_Recog_RT	Subseq_Source_Mem_Acc	Subseq_Source_Mem_Acc_RT
4.001	1.000	Valid Other Obj Cue: valid cue where following stimulus was an untested or no response object	OBJ	V	1	0.787	UT	UT	UT	UT
6.001	0.500	Valid Other Obj: stimulus that was an untested or no response object and that followed a valid cue	OBJ	V	1	0.787	UT	UT	UT	UT
8.002	1.000	Valid Miss Cue: valid cue where following object was a subsequent miss	OBJ	V	1	0.594	LC-MISS	 3.8197	UT	UT
14.002	0.500	Valid Miss Obj: object that was a subsequent miss and that followed a valid cue	OBJ	V	1	0.594	LC-MISS	 3.8197	UT	UT
16.002	1.000	Valid Other Greeble Cue: valid cue where following stimulus was an untested or no response greeble	GRE	V	1	0.700	UT	UT	UT	UT
20.002	0.500	Valid Other Greeble: stimulus that was an untested or no response greeble and that followed a valid cue	GRE	V	1	0.700	UT	UT	UT	UT
22.001	1.000	Valid HC-Hit Cue: valid cue where following object was a subsequent high confidence hit	OBJ	V	1	0.659	HC-HIT	 1.1674	1	1.182
28.001	0.500	Valid HC-Hit Obj: object that was a subsequent high confidence hit and that followed a valid cue	OBJ	V	1	0.659	HC-HIT	 1.1674	1	1.182
30.001	1.000	Invalid HC-Hit Cue: invalid cue where following object was a subsequent high confidence hit	OBJ	NV	1	0.680	HC-HIT	 1.2388	1	4.2238
32.001	0.500	Invalid HC-Hit Obj: object that was a subsequent high confidence hit and that followed an invalid cue	OBJ	NV	1	0.680	HC-HIT	 1.2388	1	4.2238
36.002	1.000	Valid Other Greeble Cue: valid cue where following stimulus was an untested or no response greeble	GRE	V	1	0.669	UT	UT	UT	UT
42.002	0.500	Valid Other Greeble: stimulus that was an untested or no response greeble and that followed a valid cue	GRE	V	1	0.669	UT	UT	UT	UT
44.001	1.000	Valid Miss Cue: valid cue where following object was a subsequent miss	OBJ	V	1	0.841	LC-MISS	 2.0256	UT	UT
46.001	0.500	Valid Miss Obj: object that was a subsequent miss and that followed a valid cue	OBJ	V	1	0.841	LC-MISS	 2.0256	UT	UT
48.001	1.000	Invalid HC-Hit Cue: invalid cue where following object was a subsequent high confidence hit	OBJ	NV	1	0.888	HC-HIT	 1.0918	1	1.575
54.001	0.500	Invalid HC-Hit Obj: object that was a subsequent high confidence hit and that followed an invalid cue	OBJ	NV	1	0.888	HC-HIT	 1.0918	1	1.575
56.001	1.000	Valid Other Greeble Cue: valid cue where following stimulus was an untested or no response greeble	GRE	V	1	0.676	UT	UT	UT	UT
58.001	0.500	Valid Other Greeble: stimulus that was an untested or no response greeble and that followed a valid cue	GRE	V	1	0.676	UT	UT	UT	UT
60.001	1.000	Valid Miss Cue: valid cue where following object was a subsequent miss	OBJ	V	1	0.910	HC-MISS	  3.045	UT	UT
64.001	0.500	Valid Miss Obj: object that was a subsequent miss and that followed a valid cue	OBJ	V	1	0.910	HC-MISS	  3.045	UT	UT
66.001	1.000	Invalid Other Greeble Cue: invalid cue where following stimulus was an untested or no response greeble	GRE	NV	1	0.703	UT	UT	UT	UT
70.001	0.500	Invalid Other Greeble: stimulus that was an untested or no response greeble and that followed a invalid cue	GRE	NV	1	0.703	UT	UT	UT	UT
72.001	1.000	Valid Other Greeble Cue: valid cue where following stimulus was an untested or no response greeble	GRE	V	1	0.676	UT	UT	UT	UT
74.001	0.500	Valid Other Greeble: stimulus that was an untested or no response greeble and that followed a valid cue	GRE	V	1	0.676	UT	UT	UT	UT
76.001	1.000	Valid HC-Hit Cue: valid cue where following object was a subsequent high confidence hit	OBJ	V	1	0.760	HC-HIT	 1.0172	0	0.89816
78.001	0.500	Valid HC-Hit Obj: object that was a subsequent high confidence hit and that followed a valid cue	OBJ	V	1	0.760	HC-HIT	 1.0172	0	0.89816
80.001	1.000	Valid Other Greeble Cue: valid cue where following stimulus was an untested or no response greeble	GRE	V	1	0.702	UT	UT	UT	UT
86.001	0.500	Valid Other Greeble: stimulus that was an untested or no response greeble and that followed a valid cue	GRE	V	1	0.702	UT	UT	UT	UT
88.001	1.000	Valid HC-Hit Cue: valid cue where following object was a subsequent high confidence hit	OBJ	V	1	0.752	HC-HIT	 1.7363	1	1.0594
92.001	0.500	Valid HC-Hit Obj: object that was a subsequent high confidence hit and that followed a valid cue	OBJ	V	1	0.752	HC-HIT	 1.7363	1	1.0594
94.001	1.000	Valid Other Greeble Cue: valid cue where following stimulus was an untested or no response greeble	GRE	V	1	0.557	UT	UT	UT	UT
96.001	0.500	Valid Other Greeble: stimulus that was an untested or no response greeble and that followed a valid cue	GRE	V	1	0.557	UT	UT	UT	UT
98.001	1.000	Valid HC-Hit Cue: valid cue where following object was a subsequent high confidence hit	OBJ	V	1	0.769	HC-HIT	0.99194	0	0.92446
100.001	0.500	Valid HC-Hit Obj: object that was a subsequent high confidence hit and that followed a valid cue	OBJ	V	1	0.769	HC-HIT	0.99194	0	0.92446
102.002	1.000	Valid HC-Hit Cue: valid cue where following object was a subsequent high confidence hit	OBJ	V	1	0.651	HC-HIT	 1.7771	1	0.35458
106.002	0.500	Valid HC-Hit Obj: object that was a subsequent high confidence hit and that followed a valid cue	OBJ	V	1	0.651	HC-HIT	 1.7771	1	0.35458
108.001	1.000	Valid HC-Hit Cue: valid cue where following object was a subsequent high confidence hit	OBJ	V	1	1.017	HC-HIT	 1.1648	1	1.6811
114.001	0.500	Valid HC-Hit Obj: object that was a subsequent high confidence hit and that followed a valid cue	OBJ	V	1	1.017	HC-HIT	 1.1648	1	1.6811
116.001	1.000	Invalid HC-Hit Cue: invalid cue where following object was a subsequent high confidence hit	OBJ	NV	1	0.853	HC-HIT	  1.332	1	0.86507
118.001	0.500	Invalid HC-Hit Obj: object that was a subsequent high confidence hit and that followed an invalid cue	OBJ	NV	1	0.853	HC-HIT	  1.332	1	0.86507
120.002	1.000	Valid HC-Hit Cue: valid cue where following object was a subsequent high confidence hit	OBJ	V	1	0.585	HC-HIT	 2.5288	1	0.37702
122.002	0.500	Valid HC-Hit Obj: object that was a subsequent high confidence hit and that followed a valid cue	OBJ	V	1	0.585	HC-HIT	 2.5288	1	0.37702
124.001	1.000	Valid Other Greeble Cue: valid cue where following stimulus was an untested or no response greeble	GRE	V	1	0.674	UT	UT	UT	UT
130.001	0.500	Valid Other Greeble: stimulus that was an untested or no response greeble and that followed a valid cue	GRE	V	1	0.674	UT	UT	UT	UT
132.002	1.000	Valid Miss Cue: valid cue where following object was a subsequent miss	OBJ	V	1	0.652	LC-MISS	 1.9281	UT	UT
134.002	0.500	Valid Miss Obj: object that was a subsequent miss and that followed a valid cue	OBJ	V	1	0.652	LC-MISS	 1.9281	UT	UT
136.001	1.000	Valid Miss Cue: valid cue where following object was a subsequent miss	OBJ	V	1	0.720	LC-MISS	 3.1743	UT	UT
138.001	0.500	Valid Miss Obj: object that was a subsequent miss and that followed a valid cue	OBJ	V	1	0.720	LC-MISS	 3.1743	UT	UT
140.001	1.000	Valid Other Greeble Cue: valid cue where following stimulus was an untested or no response greeble	GRE	V	1	0.676	UT	UT	UT	UT
142.001	0.500	Valid Other Greeble: stimulus that was an untested or no response greeble and that followed a valid cue	GRE	V	1	0.676	UT	UT	UT	UT
144.001	1.000	Invalid HC-Hit Cue: invalid cue where following object was a subsequent high confidence hit	OBJ	NV	1	0.808	HC-HIT	 1.4187	0	0.42127
146.001	0.500	Invalid HC-Hit Obj: object that was a subsequent high confidence hit and that followed an invalid cue	OBJ	NV	1	0.808	HC-HIT	 1.4187	0	0.42127
152.002	1.000	Valid Miss Cue: valid cue where following object was a subsequent miss	OBJ	V	1	1.086	LC-MISS	 1.3963	UT	UT
156.002	0.500	Valid Miss Obj: object that was a subsequent miss and that followed a valid cue	OBJ	V	1	1.086	LC-MISS	 1.3963	UT	UT
160.002	1.000	Valid Other Greeble Cue: valid cue where following stimulus was an untested or no response greeble	GRE	V	1	0.618	UT	UT	UT	UT
166.002	0.500	Valid Other Greeble: stimulus that was an untested or no response greeble and that followed a valid cue	GRE	V	1	0.618	UT	UT	UT	UT
168.001	1.000	Valid Miss Cue: valid cue where following object was a subsequent miss	OBJ	V	1	0.747	LC-MISS	 1.9132	UT	UT
174.001	0.500	Valid Miss Obj: object that was a subsequent miss and that followed a valid cue	OBJ	V	1	0.747	LC-MISS	 1.9132	UT	UT
176.002	1.000	Valid HC-Hit Cue: valid cue where following object was a subsequent high confidence hit	OBJ	V	1	0.740	HC-HIT	  2.206	0	1.075
180.002	0.500	Valid HC-Hit Obj: object that was a subsequent high confidence hit and that followed a valid cue	OBJ	V	1	0.740	HC-HIT	  2.206	0	1.075
182.001	1.000	Valid Other Obj Cue: valid cue where following stimulus was an untested or no response object	OBJ	V	1	0.717	UT	UT	UT	UT
188.001	0.500	Valid Other Obj: stimulus that was an untested or no response object and that followed a valid cue	OBJ	V	1	0.717	UT	UT	UT	UT
190.002	1.000	Valid Other Greeble Cue: valid cue where following stimulus was an untested or no response greeble	GRE	V	1	0.704	UT	UT	UT	UT
192.002	0.500	Valid Other Greeble: stimulus that was an untested or no response greeble and that followed a valid cue	GRE	V	1	0.704	UT	UT	UT	UT
194.002	1.000	Invalid Miss Cue: invalid cue where following object was a subsequent miss	OBJ	NV	1	0.849	LC-MISS	 1.6214	UT	UT
198.002	0.500	Invalid Miss Obj: object that was a subsequent miss and that followed an invalid cue	OBJ	NV	1	0.849	LC-MISS	 1.6214	UT	UT
200.001	1.000	Valid Other Obj Cue: valid cue where following stimulus was an untested or no response object	OBJ	V	1	1.067	UT	UT	UT	UT
204.001	0.500	Valid Other Obj: stimulus that was an untested or no response object and that followed a valid cue	OBJ	V	1	1.067	UT	UT	UT	UT
206.001	1.000	Valid Other Greeble Cue: valid cue where following stimulus was an untested or no response greeble	GRE	V	1	0.695	UT	UT	UT	UT
208.001	0.500	Valid Other Greeble: stimulus that was an untested or no response greeble and that followed a valid cue	GRE	V	1	0.695	UT	UT	UT	UT
210.001	1.000	Valid Other Greeble Cue: valid cue where following stimulus was an untested or no response greeble	GRE	V	1	0.766	UT	UT	UT	UT
216.001	0.500	Valid Other Greeble: stimulus that was an untested or no response greeble and that followed a valid cue	GRE	V	1	0.766	UT	UT	UT	UT
218.001	1.000	Valid Miss Cue: valid cue where following object was a subsequent miss	OBJ	V	1	0.800	LC-MISS	 1.3912	UT	UT
222.001	0.500	Valid Miss Obj: object that was a subsequent miss and that followed a valid cue	OBJ	V	1	0.800	LC-MISS	 1.3912	UT	UT
224.001	1.000	Valid Other Obj Cue: valid cue where following stimulus was an untested or no response object	OBJ	V	1	0.658	NR	NR	UT	UT
228.001	0.500	Valid Other Obj: stimulus that was an untested or no response object and that followed a valid cue	OBJ	V	1	0.658	NR	NR	UT	UT
230.002	1.000	Valid LC-Hit Cue: valid cue where following object was a subsequent low confidence hit	OBJ	V	1	0.732	LC-HIT	 3.2726	1	0.84939
234.002	0.500	Valid LC-Hit Obj: object that was a subsequent low confidence hit and that followed a valid cue	OBJ	V	1	0.732	LC-HIT	 3.2726	1	0.84939
240.001	1.000	Invalid Miss Cue: invalid cue where following object was a subsequent miss	OBJ	NV	1	0.751	HC-MISS	 1.4802	UT	UT
246.001	0.500	Invalid Miss Obj: object that was a subsequent miss and that followed an invalid cue	OBJ	NV	1	0.751	HC-MISS	 1.4802	UT	UT
250.001	1.000	Valid Miss Cue: valid cue where following object was a subsequent miss	OBJ	V	1	0.608	LC-MISS	 1.8321	UT	UT
252.001	0.500	Valid Miss Obj: object that was a subsequent miss and that followed a valid cue	OBJ	V	1	0.608	LC-MISS	 1.8321	UT	UT
256.002	1.000	Valid LC-Hit Cue: valid cue where following object was a subsequent low confidence hit	OBJ	V	1	0.694	LC-HIT	 3.4232	0	0.54344
262.002	0.500	Valid LC-Hit Obj: object that was a subsequent low confidence hit and that followed a valid cue	OBJ	V	1	0.694	LC-HIT	 3.4232	0	0.54344
264.001	1.000	Valid Miss Cue: valid cue where following object was a subsequent miss	OBJ	V	1	0.800	HC-MISS	 1.2085	UT	UT
268.001	0.500	Valid Miss Obj: object that was a subsequent miss and that followed a valid cue	OBJ	V	1	0.800	HC-MISS	 1.2085	UT	UT
270.001	1.000	Valid Other Greeble Cue: valid cue where following stimulus was an untested or no response greeble	GRE	V	1	0.761	UT	UT	UT	UT
274.001	0.500	Valid Other Greeble: stimulus that was an untested or no response greeble and that followed a valid cue	GRE	V	1	0.761	UT	UT	UT	UT
276.001	1.000	Invalid Miss Cue: invalid cue where following object was a subsequent miss	OBJ	NV	1	0.675	HC-MISS	 1.4171	UT	UT
280.001	0.500	Invalid Miss Obj: object that was a subsequent miss and that followed an invalid cue	OBJ	NV	1	0.675	HC-MISS	 1.4171	UT	UT
284.001	1.000	Valid HC-Hit Cue: valid cue where following object was a subsequent high confidence hit	OBJ	V	1	0.984	HC-HIT	 1.8275	0	1.4392
290.001	0.500	Valid HC-Hit Obj: object that was a subsequent high confidence hit and that followed a valid cue	OBJ	V	1	0.984	HC-HIT	 1.8275	0	1.4392
292.001	1.000	Valid Other Obj Cue: valid cue where following stimulus was an untested or no response object	OBJ	V	1	0.674	UT	UT	UT	UT
298.001	0.500	Valid Other Obj: stimulus that was an untested or no response object and that followed a valid cue	OBJ	V	1	0.674	UT	UT	UT	UT
300.001	1.000	Valid HC-Hit Cue: valid cue where following object was a subsequent high confidence hit	OBJ	V	1	0.707	HC-HIT	 1.6184	0	0.32631
304.001	0.500	Valid HC-Hit Obj: object that was a subsequent high confidence hit and that followed a valid cue	OBJ	V	1	0.707	HC-HIT	 1.6184	0	0.32631
308.001	1.000	Valid HC-Hit Cue: valid cue where following object was a subsequent high confidence hit	OBJ	V	1	0.651	HC-HIT	 2.1159	0	0.81048
310.001	0.500	Valid HC-Hit Obj: object that was a subsequent high confidence hit and that followed a valid cue	OBJ	V	1	0.651	HC-HIT	 2.1159	0	0.81048
314.001	1.000	Valid Other Greeble Cue: valid cue where following stimulus was an untested or no response greeble	GRE	V	1	0.699	UT	UT	UT	UT
318.001	0.500	Valid Other Greeble: stimulus that was an untested or no response greeble and that followed a valid cue	GRE	V	1	0.699	UT	UT	UT	UT
320.002	1.000	Valid Other Obj Cue: valid cue where following stimulus was an untested or no response object	OBJ	V	1	0.698	UT	UT	UT	UT
326.002	0.500	Valid Other Obj: stimulus that was an untested or no response object and that followed a valid cue	OBJ	V	1	0.698	UT	UT	UT	UT
330.002	1.000	Invalid Miss Cue: invalid cue where following object was a subsequent miss	OBJ	NV	1	0.795	LC-MISS	 1.2274	UT	UT
334.002	0.500	Invalid Miss Obj: object that was a subsequent miss and that followed an invalid cue	OBJ	NV	1	0.795	LC-MISS	 1.2274	UT	UT
336.001	1.000	Valid Miss Cue: valid cue where following object was a subsequent miss	OBJ	V	1	0.798	LC-MISS	 1.4493	UT	UT
338.001	0.500	Valid Miss Obj: object that was a subsequent miss and that followed a valid cue	OBJ	V	1	0.798	LC-MISS	 1.4493	UT	UT
340.002	1.000	Invalid Other Greeble Cue: invalid cue where following stimulus was an untested or no response greeble	GRE	NV	1	0.840	UT	UT	UT	UT
346.002	0.500	Invalid Other Greeble: stimulus that was an untested or no response greeble and that followed a invalid cue	GRE	NV	1	0.840	UT	UT	UT	UT
350.002	1.000	Valid HC-Hit Cue: valid cue where following object was a subsequent high confidence hit	OBJ	V	1	0.724	HC-HIT	 3.8202	1	0.081507
356.002	0.500	Valid HC-Hit Obj: object that was a subsequent high confidence hit and that followed a valid cue	OBJ	V	1	0.724	HC-HIT	 3.8202	1	0.081507
360.001	1.000	Valid HC-Hit Cue: valid cue where following object was a subsequent high confidence hit	OBJ	V	1	0.771	HC-HIT	 1.4188	1	0.25406
364.001	0.500	Valid HC-Hit Obj: object that was a subsequent high confidence hit and that followed a valid cue	OBJ	V	1	0.771	HC-HIT	 1.4188	1	0.25406
