onset	duration	trial_type	Object_Cond	Validity_Cond	Obj_Accuracy	Obj_Acc_RT	Subseq_Recog	Subseq_Recog_RT	Subseq_Source_Mem_Acc	Subseq_Source_Mem_Acc_RT
4.000	1.000	Valid Other Obj Cue: valid cue where following stimulus was an untested or no response object	OBJ	V	1	0.67743	UT	UT	UT	UT
6.000	0.500	Valid Other Obj: stimulus that was an untested or no response object and that followed a valid cue	OBJ	V	1	0.67743	UT	UT	UT	UT
8.001	1.000	Valid LC-Hit Cue: valid cue where following object was a subsequent low confidence hit	OBJ	V	1	0.64902	LC-HIT	 1.6604	0	0.46265
10.001	0.500	Valid LC-Hit Obj: object that was a subsequent low confidence hit and that followed a valid cue	OBJ	V	1	0.64902	LC-HIT	 1.6604	0	0.46265
12.001	1.000	Valid Other Greeble Cue: valid cue where following stimulus was an untested or no response greeble	GRE	V	1	0.70035	UT	UT	UT	UT
14.001	0.500	Valid Other Greeble: stimulus that was an untested or no response greeble and that followed a valid cue	GRE	V	1	0.70035	UT	UT	UT	UT
16.001	1.000	Invalid LC-Hit Cue: invalid cue where following object was a subsequent low confidence hit	OBJ	NV	1	0.71827	LC-HIT	 2.3865	0	0.10658
20.001	0.500	Invalid LC-Hit Obj: object that was a subsequent low confidence hit and that followed an invalid cue	OBJ	NV	1	0.71827	LC-HIT	 2.3865	0	0.10658
22.001	1.000	Valid Miss Cue: valid cue where following object was a subsequent miss	OBJ	V	1	0.63444	HC-MISS	0.94461	UT	UT
24.001	0.500	Valid Miss Obj: object that was a subsequent miss and that followed a valid cue	OBJ	V	1	0.63444	HC-MISS	0.94461	UT	UT
26.001	1.000	Valid Miss Cue: valid cue where following object was a subsequent miss	OBJ	V	1	0.66774	LC-MISS	 1.0272	UT	UT
30.001	0.500	Valid Miss Obj: object that was a subsequent miss and that followed a valid cue	OBJ	V	1	0.66774	LC-MISS	 1.0272	UT	UT
32.001	1.000	Valid Other Greeble Cue: valid cue where following stimulus was an untested or no response greeble	GRE	V	1	0.69454	UT	UT	UT	UT
36.001	0.500	Valid Other Greeble: stimulus that was an untested or no response greeble and that followed a valid cue	GRE	V	1	0.69454	UT	UT	UT	UT
38.001	1.000	Valid Other Obj Cue: valid cue where following stimulus was an untested or no response object	OBJ	V	1	0.66352	UT	UT	UT	UT
42.001	0.500	Valid Other Obj: stimulus that was an untested or no response object and that followed a valid cue	OBJ	V	1	0.66352	UT	UT	UT	UT
44.002	1.000	Valid Miss Cue: valid cue where following object was a subsequent miss	OBJ	V	1	0.73832	HC-MISS	 1.3948	UT	UT
46.002	0.500	Valid Miss Obj: object that was a subsequent miss and that followed a valid cue	OBJ	V	1	0.73832	HC-MISS	 1.3948	UT	UT
50.001	1.000	Valid Miss Cue: valid cue where following object was a subsequent miss	OBJ	V	1	0.80785	HC-MISS	0.84908	UT	UT
56.001	0.500	Valid Miss Obj: object that was a subsequent miss and that followed a valid cue	OBJ	V	1	0.80785	HC-MISS	0.84908	UT	UT
58.001	1.000	Valid Other Greeble Cue: valid cue where following stimulus was an untested or no response greeble	GRE	V	1	0.63522	UT	UT	UT	UT
62.001	0.500	Valid Other Greeble: stimulus that was an untested or no response greeble and that followed a valid cue	GRE	V	1	0.63522	UT	UT	UT	UT
64.001	1.000	Invalid HC-Hit Cue: invalid cue where following object was a subsequent high confidence hit	OBJ	NV	1	0.79532	HC-HIT	0.98693	1	0.14652
68.001	0.500	Invalid HC-Hit Obj: object that was a subsequent high confidence hit and that followed an invalid cue	OBJ	NV	1	0.79532	HC-HIT	0.98693	1	0.14652
70.001	1.000	Valid Miss Cue: valid cue where following object was a subsequent miss	OBJ	V	1	0.74216	LC-MISS	 1.1511	UT	UT
74.001	0.500	Valid Miss Obj: object that was a subsequent miss and that followed a valid cue	OBJ	V	1	0.74216	LC-MISS	 1.1511	UT	UT
76.002	1.000	Valid Other Greeble Cue: valid cue where following stimulus was an untested or no response greeble	GRE	V	1	 0.7325	UT	UT	UT	UT
82.002	0.500	Valid Other Greeble: stimulus that was an untested or no response greeble and that followed a valid cue	GRE	V	1	 0.7325	UT	UT	UT	UT
84.001	1.000	Valid HC-Hit Cue: valid cue where following object was a subsequent high confidence hit	OBJ	V	NR	NR	HC-HIT	 2.0418	0	1.2637
88.001	0.500	Valid HC-Hit Obj: object that was a subsequent high confidence hit and that followed a valid cue	OBJ	V	NR	NR	HC-HIT	 2.0418	0	1.2637
90.001	1.000	Valid Other Obj Cue: valid cue where following stimulus was an untested or no response object	OBJ	V	1	0.87144	UT	UT	UT	UT
96.001	0.500	Valid Other Obj: stimulus that was an untested or no response object and that followed a valid cue	OBJ	V	1	0.87144	UT	UT	UT	UT
100.001	1.000	Valid Other Greeble Cue: valid cue where following stimulus was an untested or no response greeble	GRE	V	1	0.69932	UT	UT	UT	UT
106.001	0.500	Valid Other Greeble: stimulus that was an untested or no response greeble and that followed a valid cue	GRE	V	1	0.69932	UT	UT	UT	UT
108.001	1.000	Valid HC-Hit Cue: valid cue where following object was a subsequent high confidence hit	OBJ	V	1	0.72088	HC-HIT	  1.205	1	0.89377
110.001	0.500	Valid HC-Hit Obj: object that was a subsequent high confidence hit and that followed a valid cue	OBJ	V	1	0.72088	HC-HIT	  1.205	1	0.89377
112.001	1.000	Valid Miss Cue: valid cue where following object was a subsequent miss	OBJ	V	1	0.77551	HC-MISS	 1.7658	UT	UT
118.001	0.500	Valid Miss Obj: object that was a subsequent miss and that followed a valid cue	OBJ	V	1	0.77551	HC-MISS	 1.7658	UT	UT
120.001	1.000	Valid HC-Hit Cue: valid cue where following object was a subsequent high confidence hit	OBJ	V	1	0.75245	HC-HIT	 1.0183	1	0.10203
124.001	0.500	Valid HC-Hit Obj: object that was a subsequent high confidence hit and that followed a valid cue	OBJ	V	1	0.75245	HC-HIT	 1.0183	1	0.10203
126.001	1.000	Invalid HC-Hit Cue: invalid cue where following object was a subsequent high confidence hit	OBJ	NV	1	0.64054	HC-HIT	 1.6812	1	0.3041
132.001	0.500	Invalid HC-Hit Obj: object that was a subsequent high confidence hit and that followed an invalid cue	OBJ	NV	1	0.64054	HC-HIT	 1.6812	1	0.3041
136.001	1.000	Valid Other Obj Cue: valid cue where following stimulus was an untested or no response object	OBJ	V	1	0.59751	NR	NR	UT	UT
142.001	0.500	Valid Other Obj: stimulus that was an untested or no response object and that followed a valid cue	OBJ	V	1	0.59751	NR	NR	UT	UT
144.003	1.000	Invalid HC-Hit Cue: invalid cue where following object was a subsequent high confidence hit	OBJ	NV	1	0.74151	HC-HIT	 2.0752	0	0.14945
150.003	0.500	Invalid HC-Hit Obj: object that was a subsequent high confidence hit and that followed an invalid cue	OBJ	NV	1	0.74151	HC-HIT	 2.0752	0	0.14945
152.001	1.000	Valid Miss Cue: valid cue where following object was a subsequent miss	OBJ	V	1	0.71116	LC-MISS	 2.1841	UT	UT
156.001	0.500	Valid Miss Obj: object that was a subsequent miss and that followed a valid cue	OBJ	V	1	0.71116	LC-MISS	 2.1841	UT	UT
160.002	1.000	Valid Other Greeble Cue: valid cue where following stimulus was an untested or no response greeble	GRE	V	1	 1.1011	UT	UT	UT	UT
166.002	0.500	Valid Other Greeble: stimulus that was an untested or no response greeble and that followed a valid cue	GRE	V	1	 1.1011	UT	UT	UT	UT
168.001	1.000	Invalid Other Greeble Cue: invalid cue where following stimulus was an untested or no response greeble	GRE	NV	1	0.80509	UT	UT	UT	UT
174.001	0.500	Invalid Other Greeble: stimulus that was an untested or no response greeble and that followed a invalid cue	GRE	NV	1	0.80509	UT	UT	UT	UT
176.001	1.000	Valid HC-Hit Cue: valid cue where following object was a subsequent high confidence hit	OBJ	V	1	0.82438	HC-HIT	 1.0824	1	0.24377
178.001	0.500	Valid HC-Hit Obj: object that was a subsequent high confidence hit and that followed a valid cue	OBJ	V	1	0.82438	HC-HIT	 1.0824	1	0.24377
180.001	1.000	Valid Miss Cue: valid cue where following object was a subsequent miss	OBJ	V	1	0.80967	HC-MISS	  1.518	UT	UT
184.001	0.500	Valid Miss Obj: object that was a subsequent miss and that followed a valid cue	OBJ	V	1	0.80967	HC-MISS	  1.518	UT	UT
186.002	1.000	Invalid HC-Hit Cue: invalid cue where following object was a subsequent high confidence hit	OBJ	NV	1	0.89424	HC-HIT	 2.3667	1	0.20483
188.002	0.500	Invalid HC-Hit Obj: object that was a subsequent high confidence hit and that followed an invalid cue	OBJ	NV	1	0.89424	HC-HIT	 2.3667	1	0.20483
190.002	1.000	Valid LC-Hit Cue: valid cue where following object was a subsequent low confidence hit	OBJ	V	1	0.80028	LC-HIT	 1.9671	1	0.69991
194.002	0.500	Valid LC-Hit Obj: object that was a subsequent low confidence hit and that followed a valid cue	OBJ	V	1	0.80028	LC-HIT	 1.9671	1	0.69991
196.001	1.000	Valid Other Greeble Cue: valid cue where following stimulus was an untested or no response greeble	GRE	V	1	0.65123	UT	UT	UT	UT
198.001	0.500	Valid Other Greeble: stimulus that was an untested or no response greeble and that followed a valid cue	GRE	V	1	0.65123	UT	UT	UT	UT
200.002	1.000	Valid Other Obj Cue: valid cue where following stimulus was an untested or no response object	OBJ	V	1	0.75533	UT	UT	UT	UT
206.002	0.500	Valid Other Obj: stimulus that was an untested or no response object and that followed a valid cue	OBJ	V	1	0.75533	UT	UT	UT	UT
208.000	1.000	Valid Other Greeble Cue: valid cue where following stimulus was an untested or no response greeble	GRE	V	1	0.69522	UT	UT	UT	UT
210.000	0.500	Valid Other Greeble: stimulus that was an untested or no response greeble and that followed a valid cue	GRE	V	1	0.69522	UT	UT	UT	UT
212.001	1.000	Invalid Miss Cue: invalid cue where following object was a subsequent miss	OBJ	NV	1	0.68781	LC-MISS	 1.3593	UT	UT
216.001	0.500	Invalid Miss Obj: object that was a subsequent miss and that followed an invalid cue	OBJ	NV	1	0.68781	LC-MISS	 1.3593	UT	UT
220.001	1.000	Valid HC-Hit Cue: valid cue where following object was a subsequent high confidence hit	OBJ	V	1	0.69311	HC-HIT	 3.4583	1	0.32443
226.001	0.500	Valid HC-Hit Obj: object that was a subsequent high confidence hit and that followed a valid cue	OBJ	V	1	0.69311	HC-HIT	 3.4583	1	0.32443
230.001	1.000	Valid Miss Cue: valid cue where following object was a subsequent miss	OBJ	V	1	0.70906	LC-MISS	 2.5643	UT	UT
234.001	0.500	Valid Miss Obj: object that was a subsequent miss and that followed a valid cue	OBJ	V	1	0.70906	LC-MISS	 2.5643	UT	UT
240.002	1.000	Invalid HC-Hit Cue: invalid cue where following object was a subsequent high confidence hit	OBJ	NV	1	0.82928	HC-HIT	 1.1318	1	0.10772
242.002	0.500	Invalid HC-Hit Obj: object that was a subsequent high confidence hit and that followed an invalid cue	OBJ	NV	1	0.82928	HC-HIT	 1.1318	1	0.10772
246.001	1.000	Valid Other Greeble Cue: valid cue where following stimulus was an untested or no response greeble	GRE	V	1	0.69019	UT	UT	UT	UT
252.001	0.500	Valid Other Greeble: stimulus that was an untested or no response greeble and that followed a valid cue	GRE	V	1	0.69019	UT	UT	UT	UT
256.001	1.000	Valid Miss Cue: valid cue where following object was a subsequent miss	OBJ	V	1	  0.825	LC-MISS	 1.9921	UT	UT
262.001	0.500	Valid Miss Obj: object that was a subsequent miss and that followed a valid cue	OBJ	V	1	  0.825	LC-MISS	 1.9921	UT	UT
264.001	1.000	Valid Other Greeble Cue: valid cue where following stimulus was an untested or no response greeble	GRE	V	1	0.70765	UT	UT	UT	UT
266.001	0.500	Valid Other Greeble: stimulus that was an untested or no response greeble and that followed a valid cue	GRE	V	1	0.70765	UT	UT	UT	UT
268.002	1.000	Invalid LC-Hit Cue: invalid cue where following object was a subsequent low confidence hit	OBJ	NV	0	0.71939	LC-HIT	 2.3738	1	0.12683
270.002	0.500	Invalid LC-Hit Obj: object that was a subsequent low confidence hit and that followed an invalid cue	OBJ	NV	0	0.71939	LC-HIT	 2.3738	1	0.12683
276.001	1.000	Valid Miss Cue: valid cue where following object was a subsequent miss	OBJ	V	1	0.72686	LC-MISS	 2.8405	UT	UT
278.001	0.500	Valid Miss Obj: object that was a subsequent miss and that followed a valid cue	OBJ	V	1	0.72686	LC-MISS	 2.8405	UT	UT
280.001	1.000	Valid Other Greeble Cue: valid cue where following stimulus was an untested or no response greeble	GRE	V	1	0.68459	UT	UT	UT	UT
282.001	0.500	Valid Other Greeble: stimulus that was an untested or no response greeble and that followed a valid cue	GRE	V	1	0.68459	UT	UT	UT	UT
284.001	1.000	Valid HC-Hit Cue: valid cue where following object was a subsequent high confidence hit	OBJ	V	1	0.81248	HC-HIT	 1.1697	1	0.23037
288.001	0.500	Valid HC-Hit Obj: object that was a subsequent high confidence hit and that followed a valid cue	OBJ	V	1	0.81248	HC-HIT	 1.1697	1	0.23037
290.001	1.000	Valid Miss Cue: valid cue where following object was a subsequent miss	OBJ	V	1	0.67763	LC-MISS	 1.9302	UT	UT
296.001	0.500	Valid Miss Obj: object that was a subsequent miss and that followed a valid cue	OBJ	V	1	0.67763	LC-MISS	 1.9302	UT	UT
298.001	1.000	Valid Other Greeble Cue: valid cue where following stimulus was an untested or no response greeble	GRE	V	1	0.70713	UT	UT	UT	UT
304.001	0.500	Valid Other Greeble: stimulus that was an untested or no response greeble and that followed a valid cue	GRE	V	1	0.70713	UT	UT	UT	UT
306.001	1.000	Valid Other Greeble Cue: valid cue where following stimulus was an untested or no response greeble	GRE	V	1	0.62354	UT	UT	UT	UT
308.001	0.500	Valid Other Greeble: stimulus that was an untested or no response greeble and that followed a valid cue	GRE	V	1	0.62354	UT	UT	UT	UT
310.001	1.000	Valid HC-Hit Cue: valid cue where following object was a subsequent high confidence hit	OBJ	V	1	0.73527	HC-HIT	 2.4691	0	0.19362
316.001	0.500	Valid HC-Hit Obj: object that was a subsequent high confidence hit and that followed a valid cue	OBJ	V	1	0.73527	HC-HIT	 2.4691	0	0.19362
318.002	1.000	Valid Other Obj Cue: valid cue where following stimulus was an untested or no response object	OBJ	V	1	0.68077	UT	UT	UT	UT
322.002	0.500	Valid Other Obj: stimulus that was an untested or no response object and that followed a valid cue	OBJ	V	1	0.68077	UT	UT	UT	UT
324.001	1.000	Invalid Other Greeble Cue: invalid cue where following stimulus was an untested or no response greeble	GRE	NV	1	0.66385	UT	UT	UT	UT
330.001	0.500	Invalid Other Greeble: stimulus that was an untested or no response greeble and that followed a invalid cue	GRE	NV	1	0.66385	UT	UT	UT	UT
332.001	1.000	Valid HC-Hit Cue: valid cue where following object was a subsequent high confidence hit	OBJ	V	1	0.81171	HC-HIT	 1.9068	1	0.46684
334.001	0.500	Valid HC-Hit Obj: object that was a subsequent high confidence hit and that followed a valid cue	OBJ	V	1	0.81171	HC-HIT	 1.9068	1	0.46684
336.001	1.000	Valid Other Greeble Cue: valid cue where following stimulus was an untested or no response greeble	GRE	V	1	0.74272	UT	UT	UT	UT
340.001	0.500	Valid Other Greeble: stimulus that was an untested or no response greeble and that followed a valid cue	GRE	V	1	0.74272	UT	UT	UT	UT
342.001	1.000	Valid HC-Hit Cue: valid cue where following object was a subsequent high confidence hit	OBJ	V	1	0.85555	HC-HIT	 2.0362	0	0.28987
346.001	0.500	Valid HC-Hit Obj: object that was a subsequent high confidence hit and that followed a valid cue	OBJ	V	1	0.85555	HC-HIT	 2.0362	0	0.28987
350.001	1.000	Valid LC-Hit Cue: valid cue where following object was a subsequent low confidence hit	OBJ	V	1	0.70325	LC-HIT	 2.1822	0	0.7771
354.001	0.500	Valid LC-Hit Obj: object that was a subsequent low confidence hit and that followed a valid cue	OBJ	V	1	0.70325	LC-HIT	 2.1822	0	0.7771
356.002	1.000	Valid LC-Hit Cue: valid cue where following object was a subsequent low confidence hit	OBJ	V	1	0.66762	LC-HIT	 1.1337	1	0.18155
358.002	0.500	Valid LC-Hit Obj: object that was a subsequent low confidence hit and that followed a valid cue	OBJ	V	1	0.66762	LC-HIT	 1.1337	1	0.18155
360.001	1.000	Valid Miss Cue: valid cue where following object was a subsequent miss	OBJ	V	1	0.81593	HC-MISS	 2.1789	UT	UT
362.001	0.500	Valid Miss Obj: object that was a subsequent miss and that followed a valid cue	OBJ	V	1	0.81593	HC-MISS	 2.1789	UT	UT
