onset	duration	trial_type	Object_Cond	Validity_Cond	Obj_Accuracy	Obj_Acc_RT	Subseq_Recog	Subseq_Recog_RT	Subseq_Source_Mem_Acc	Subseq_Source_Mem_Acc_RT
4.001	1.000	Valid Other Obj Cue: valid cue where following stimulus was an untested or no response object	OBJ	V	1	0.666	UT	UT	UT	UT
6.001	0.500	Valid Other Obj: stimulus that was an untested or no response object and that followed a valid cue	OBJ	V	1	0.666	UT	UT	UT	UT
8.002	1.000	Invalid HC-Hit Cue: invalid cue where following object was a subsequent high confidence hit	OBJ	NV	1	0.874	HC-HIT	 1.7834	1	0.27988
14.002	0.500	Invalid HC-Hit Obj: object that was a subsequent high confidence hit and that followed an invalid cue	OBJ	NV	1	0.874	HC-HIT	 1.7834	1	0.27988
16.001	1.000	Valid HC-Hit Cue: valid cue where following object was a subsequent high confidence hit	OBJ	V	1	0.812	HC-HIT	 1.3922	1	0.23572
20.001	0.500	Valid HC-Hit Obj: object that was a subsequent high confidence hit and that followed a valid cue	OBJ	V	1	0.812	HC-HIT	 1.3922	1	0.23572
22.001	1.000	Valid Other Greeble Cue: valid cue where following stimulus was an untested or no response greeble	GRE	V	1	0.936	UT	UT	UT	UT
24.001	0.500	Valid Other Greeble: stimulus that was an untested or no response greeble and that followed a valid cue	GRE	V	1	0.936	UT	UT	UT	UT
26.002	1.000	Valid Other Obj Cue: valid cue where following stimulus was an untested or no response object	OBJ	V	1	0.817	UT	UT	UT	UT
30.002	0.500	Valid Other Obj: stimulus that was an untested or no response object and that followed a valid cue	OBJ	V	1	0.817	UT	UT	UT	UT
32.002	1.000	Valid HC-Hit Cue: valid cue where following object was a subsequent high confidence hit	OBJ	V	1	0.674	HC-HIT	 2.0119	1	0.46601
36.002	0.500	Valid HC-Hit Obj: object that was a subsequent high confidence hit and that followed a valid cue	OBJ	V	1	0.674	HC-HIT	 2.0119	1	0.46601
40.001	1.000	Invalid Miss Cue: invalid cue where following object was a subsequent miss	OBJ	NV	1	0.772	LC-MISS	 1.4917	UT	UT
42.001	0.500	Invalid Miss Obj: object that was a subsequent miss and that followed an invalid cue	OBJ	NV	1	0.772	LC-MISS	 1.4917	UT	UT
44.001	1.000	Valid Other Obj Cue: valid cue where following stimulus was an untested or no response object	OBJ	V	1	0.734	UT	UT	UT	UT
48.001	0.500	Valid Other Obj: stimulus that was an untested or no response object and that followed a valid cue	OBJ	V	1	0.734	UT	UT	UT	UT
50.002	1.000	Valid Other Greeble Cue: valid cue where following stimulus was an untested or no response greeble	GRE	V	1	0.769	UT	UT	UT	UT
52.002	0.500	Valid Other Greeble: stimulus that was an untested or no response greeble and that followed a valid cue	GRE	V	1	0.769	UT	UT	UT	UT
54.001	1.000	Valid Other Greeble Cue: valid cue where following stimulus was an untested or no response greeble	GRE	V	1	0.714	UT	UT	UT	UT
60.001	0.500	Valid Other Greeble: stimulus that was an untested or no response greeble and that followed a valid cue	GRE	V	1	0.714	UT	UT	UT	UT
62.002	1.000	Valid Miss Cue: valid cue where following object was a subsequent miss	OBJ	V	1	0.755	LC-MISS	 1.2739	UT	UT
66.002	0.500	Valid Miss Obj: object that was a subsequent miss and that followed a valid cue	OBJ	V	1	0.755	LC-MISS	 1.2739	UT	UT
68.001	1.000	Invalid HC-Hit Cue: invalid cue where following object was a subsequent high confidence hit	OBJ	NV	1	0.693	HC-HIT	 1.8784	1	0.22219
72.001	0.500	Invalid HC-Hit Obj: object that was a subsequent high confidence hit and that followed an invalid cue	OBJ	NV	1	0.693	HC-HIT	 1.8784	1	0.22219
74.002	1.000	Valid Other Greeble Cue: valid cue where following stimulus was an untested or no response greeble	GRE	V	1	0.729	UT	UT	UT	UT
76.002	0.500	Valid Other Greeble: stimulus that was an untested or no response greeble and that followed a valid cue	GRE	V	1	0.729	UT	UT	UT	UT
78.002	1.000	Valid HC-Hit Cue: valid cue where following object was a subsequent high confidence hit	OBJ	V	1	0.744	HC-HIT	 1.4455	1	0.52839
84.002	0.500	Valid HC-Hit Obj: object that was a subsequent high confidence hit and that followed a valid cue	OBJ	V	1	0.744	HC-HIT	 1.4455	1	0.52839
86.001	1.000	Valid Other Greeble Cue: valid cue where following stimulus was an untested or no response greeble	GRE	V	1	0.753	UT	UT	UT	UT
90.001	0.500	Valid Other Greeble: stimulus that was an untested or no response greeble and that followed a valid cue	GRE	V	1	0.753	UT	UT	UT	UT
92.001	1.000	Invalid Other Greeble Cue: invalid cue where following stimulus was an untested or no response greeble	GRE	NV	1	0.577	UT	UT	UT	UT
98.001	0.500	Invalid Other Greeble: stimulus that was an untested or no response greeble and that followed a invalid cue	GRE	NV	1	0.577	UT	UT	UT	UT
102.001	1.000	Valid HC-Hit Cue: valid cue where following object was a subsequent high confidence hit	OBJ	V	1	0.811	HC-HIT	 1.3174	1	0.32754
104.001	0.500	Valid HC-Hit Obj: object that was a subsequent high confidence hit and that followed a valid cue	OBJ	V	1	0.811	HC-HIT	 1.3174	1	0.32754
106.001	1.000	Valid Miss Cue: valid cue where following object was a subsequent miss	OBJ	V	1	0.655	LC-MISS	 3.9416	UT	UT
108.001	0.500	Valid Miss Obj: object that was a subsequent miss and that followed a valid cue	OBJ	V	1	0.655	LC-MISS	 3.9416	UT	UT
112.002	1.000	Valid HC-Hit Cue: valid cue where following object was a subsequent high confidence hit	OBJ	V	1	0.950	HC-HIT	  3.229	0	0.74361
116.002	0.500	Valid HC-Hit Obj: object that was a subsequent high confidence hit and that followed a valid cue	OBJ	V	1	0.950	HC-HIT	  3.229	0	0.74361
122.002	1.000	Invalid HC-Hit Cue: invalid cue where following object was a subsequent high confidence hit	OBJ	NV	1	0.794	HC-HIT	 1.4841	1	1.6195
128.002	0.500	Invalid HC-Hit Obj: object that was a subsequent high confidence hit and that followed an invalid cue	OBJ	NV	1	0.794	HC-HIT	 1.4841	1	1.6195
132.001	1.000	Valid Other Greeble Cue: valid cue where following stimulus was an untested or no response greeble	GRE	V	1	0.752	UT	UT	UT	UT
138.001	0.500	Valid Other Greeble: stimulus that was an untested or no response greeble and that followed a valid cue	GRE	V	1	0.752	UT	UT	UT	UT
140.001	1.000	Invalid LC-Hit Cue: invalid cue where following object was a subsequent low confidence hit	OBJ	NV	1	0.995	LC-HIT	 3.0025	0	0.28774
142.001	0.500	Invalid LC-Hit Obj: object that was a subsequent low confidence hit and that followed an invalid cue	OBJ	NV	1	0.995	LC-HIT	 3.0025	0	0.28774
148.002	1.000	Valid Other Greeble Cue: valid cue where following stimulus was an untested or no response greeble	GRE	V	1	0.691	UT	UT	UT	UT
150.002	0.500	Valid Other Greeble: stimulus that was an untested or no response greeble and that followed a valid cue	GRE	V	1	0.691	UT	UT	UT	UT
152.002	1.000	Valid HC-Hit Cue: valid cue where following object was a subsequent high confidence hit	OBJ	V	1	0.899	HC-HIT	 1.0999	1	0.24506
158.002	0.500	Valid HC-Hit Obj: object that was a subsequent high confidence hit and that followed a valid cue	OBJ	V	1	0.899	HC-HIT	 1.0999	1	0.24506
160.001	1.000	Valid HC-Hit Cue: valid cue where following object was a subsequent high confidence hit	OBJ	V	1	0.733	HC-HIT	 1.7732	1	0.1355
164.001	0.500	Valid HC-Hit Obj: object that was a subsequent high confidence hit and that followed a valid cue	OBJ	V	1	0.733	HC-HIT	 1.7732	1	0.1355
166.002	1.000	Valid Other Greeble Cue: valid cue where following stimulus was an untested or no response greeble	GRE	V	1	1.228	UT	UT	UT	UT
172.002	0.500	Valid Other Greeble: stimulus that was an untested or no response greeble and that followed a valid cue	GRE	V	1	1.228	UT	UT	UT	UT
174.001	1.000	Valid Miss Cue: valid cue where following object was a subsequent miss	OBJ	V	1	0.894	LC-MISS	 1.6682	UT	UT
178.001	0.500	Valid Miss Obj: object that was a subsequent miss and that followed a valid cue	OBJ	V	1	0.894	LC-MISS	 1.6682	UT	UT
180.002	1.000	Invalid HC-Hit Cue: invalid cue where following object was a subsequent high confidence hit	OBJ	NV	1	0.785	HC-HIT	 1.0577	0	0.36635
182.002	0.500	Invalid HC-Hit Obj: object that was a subsequent high confidence hit and that followed an invalid cue	OBJ	NV	1	0.785	HC-HIT	 1.0577	0	0.36635
186.001	1.000	Valid Miss Cue: valid cue where following object was a subsequent miss	OBJ	V	1	0.666	LC-MISS	 2.0266	UT	UT
188.001	0.500	Valid Miss Obj: object that was a subsequent miss and that followed a valid cue	OBJ	V	1	0.666	LC-MISS	 2.0266	UT	UT
190.001	1.000	Valid Other Greeble Cue: valid cue where following stimulus was an untested or no response greeble	GRE	V	1	0.723	UT	UT	UT	UT
196.001	0.500	Valid Other Greeble: stimulus that was an untested or no response greeble and that followed a valid cue	GRE	V	1	0.723	UT	UT	UT	UT
198.002	1.000	Valid HC-Hit Cue: valid cue where following object was a subsequent high confidence hit	OBJ	V	1	0.834	HC-HIT	 1.3128	0	0.4498
204.002	0.500	Valid HC-Hit Obj: object that was a subsequent high confidence hit and that followed a valid cue	OBJ	V	1	0.834	HC-HIT	 1.3128	0	0.4498
206.001	1.000	Valid Other Greeble Cue: valid cue where following stimulus was an untested or no response greeble	GRE	V	1	0.802	UT	UT	UT	UT
212.001	0.500	Valid Other Greeble: stimulus that was an untested or no response greeble and that followed a valid cue	GRE	V	1	0.802	UT	UT	UT	UT
214.001	1.000	Invalid Miss Cue: invalid cue where following object was a subsequent miss	OBJ	NV	1	0.933	LC-MISS	 1.4456	UT	UT
218.001	0.500	Invalid Miss Obj: object that was a subsequent miss and that followed an invalid cue	OBJ	NV	1	0.933	LC-MISS	 1.4456	UT	UT
222.001	1.000	Valid HC-Hit Cue: valid cue where following object was a subsequent high confidence hit	OBJ	V	1	0.732	HC-HIT	 1.1894	1	0.2022
224.001	0.500	Valid HC-Hit Obj: object that was a subsequent high confidence hit and that followed a valid cue	OBJ	V	1	0.732	HC-HIT	 1.1894	1	0.2022
226.002	1.000	Valid HC-Hit Cue: valid cue where following object was a subsequent high confidence hit	OBJ	V	1	0.865	HC-HIT	  1.126	1	0.11844
228.002	0.500	Valid HC-Hit Obj: object that was a subsequent high confidence hit and that followed a valid cue	OBJ	V	1	0.865	HC-HIT	  1.126	1	0.11844
232.001	1.000	Valid Miss Cue: valid cue where following object was a subsequent miss	OBJ	V	1	0.800	LC-MISS	 1.7293	UT	UT
236.001	0.500	Valid Miss Obj: object that was a subsequent miss and that followed a valid cue	OBJ	V	1	0.800	LC-MISS	 1.7293	UT	UT
238.001	1.000	Valid HC-Hit Cue: valid cue where following object was a subsequent high confidence hit	OBJ	V	1	0.656	HC-HIT	 1.2618	1	0.72447
244.001	0.500	Valid HC-Hit Obj: object that was a subsequent high confidence hit and that followed a valid cue	OBJ	V	1	0.656	HC-HIT	 1.2618	1	0.72447
246.001	1.000	Valid Miss Cue: valid cue where following object was a subsequent miss	OBJ	V	1	0.625	LC-MISS	 2.1263	UT	UT
250.001	0.500	Valid Miss Obj: object that was a subsequent miss and that followed a valid cue	OBJ	V	1	0.625	LC-MISS	 2.1263	UT	UT
252.001	1.000	Invalid Other Greeble Cue: invalid cue where following stimulus was an untested or no response greeble	GRE	NV	1	0.698	UT	UT	UT	UT
258.001	0.500	Invalid Other Greeble: stimulus that was an untested or no response greeble and that followed a invalid cue	GRE	NV	1	0.698	UT	UT	UT	UT
260.002	1.000	Valid Other Greeble Cue: valid cue where following stimulus was an untested or no response greeble	GRE	V	1	0.676	UT	UT	UT	UT
264.002	0.500	Valid Other Greeble: stimulus that was an untested or no response greeble and that followed a valid cue	GRE	V	1	0.676	UT	UT	UT	UT
266.002	1.000	Valid Other Obj Cue: valid cue where following stimulus was an untested or no response object	OBJ	V	1	0.832	UT	UT	UT	UT
268.002	0.500	Valid Other Obj: stimulus that was an untested or no response object and that followed a valid cue	OBJ	V	1	0.832	UT	UT	UT	UT
270.001	1.000	Valid Other Greeble Cue: valid cue where following stimulus was an untested or no response greeble	GRE	V	1	0.654	UT	UT	UT	UT
276.001	0.500	Valid Other Greeble: stimulus that was an untested or no response greeble and that followed a valid cue	GRE	V	1	0.654	UT	UT	UT	UT
278.001	1.000	Valid Miss Cue: valid cue where following object was a subsequent miss	OBJ	V	1	0.834	HC-MISS	 1.3137	UT	UT
282.001	0.500	Valid Miss Obj: object that was a subsequent miss and that followed a valid cue	OBJ	V	1	0.834	HC-MISS	 1.3137	UT	UT
284.001	1.000	Valid Miss Cue: valid cue where following object was a subsequent miss	OBJ	V	1	0.928	HC-MISS	 2.1144	UT	UT
290.001	0.500	Valid Miss Obj: object that was a subsequent miss and that followed a valid cue	OBJ	V	1	0.928	HC-MISS	 2.1144	UT	UT
292.002	1.000	Valid Miss Cue: valid cue where following object was a subsequent miss	OBJ	V	1	0.739	HC-MISS	 0.8364	UT	UT
294.002	0.500	Valid Miss Obj: object that was a subsequent miss and that followed a valid cue	OBJ	V	1	0.739	HC-MISS	 0.8364	UT	UT
296.002	1.000	Valid Other Obj Cue: valid cue where following stimulus was an untested or no response object	OBJ	V	1	0.568	UT	UT	UT	UT
298.002	0.500	Valid Other Obj: stimulus that was an untested or no response object and that followed a valid cue	OBJ	V	1	0.568	UT	UT	UT	UT
300.002	1.000	Valid HC-Hit Cue: valid cue where following object was a subsequent high confidence hit	OBJ	V	1	0.777	HC-HIT	 1.0888	1	0.18057
304.002	0.500	Valid HC-Hit Obj: object that was a subsequent high confidence hit and that followed a valid cue	OBJ	V	1	0.777	HC-HIT	 1.0888	1	0.18057
306.002	1.000	Valid LC-Hit Cue: valid cue where following object was a subsequent low confidence hit	OBJ	V	1	0.705	LC-HIT	 1.6976	1	0.23231
312.002	0.500	Valid LC-Hit Obj: object that was a subsequent low confidence hit and that followed a valid cue	OBJ	V	1	0.705	LC-HIT	 1.6976	1	0.23231
314.002	1.000	Valid HC-Hit Cue: valid cue where following object was a subsequent high confidence hit	OBJ	V	1	0.824	HC-HIT	 1.9229	0	0.22087
320.002	0.500	Valid HC-Hit Obj: object that was a subsequent high confidence hit and that followed a valid cue	OBJ	V	1	0.824	HC-HIT	 1.9229	0	0.22087
324.001	1.000	Valid LC-Hit Cue: valid cue where following object was a subsequent low confidence hit	OBJ	V	1	0.737	LC-HIT	 2.8311	1	0.45325
328.001	0.500	Valid LC-Hit Obj: object that was a subsequent low confidence hit and that followed a valid cue	OBJ	V	1	0.737	LC-HIT	 2.8311	1	0.45325
332.001	1.000	Valid Other Greeble Cue: valid cue where following stimulus was an untested or no response greeble	GRE	V	1	0.757	UT	UT	UT	UT
338.001	0.500	Valid Other Greeble: stimulus that was an untested or no response greeble and that followed a valid cue	GRE	V	1	0.757	UT	UT	UT	UT
342.001	1.000	Valid HC-Hit Cue: valid cue where following object was a subsequent high confidence hit	OBJ	V	1	0.839	HC-HIT	 1.8209	1	0.21412
344.001	0.500	Valid HC-Hit Obj: object that was a subsequent high confidence hit and that followed a valid cue	OBJ	V	1	0.839	HC-HIT	 1.8209	1	0.21412
346.001	1.000	Invalid Miss Cue: invalid cue where following object was a subsequent miss	OBJ	NV	1	0.960	HC-MISS	 2.1331	UT	UT
350.001	0.500	Invalid Miss Obj: object that was a subsequent miss and that followed an invalid cue	OBJ	NV	1	0.960	HC-MISS	 2.1331	UT	UT
352.001	1.000	Valid Other Greeble Cue: valid cue where following stimulus was an untested or no response greeble	GRE	V	1	0.698	UT	UT	UT	UT
356.001	0.500	Valid Other Greeble: stimulus that was an untested or no response greeble and that followed a valid cue	GRE	V	1	0.698	UT	UT	UT	UT
358.001	1.000	Valid LC-Hit Cue: valid cue where following object was a subsequent low confidence hit	OBJ	V	1	1.310	LC-HIT	 2.4368	0	0.28213
360.001	0.500	Valid LC-Hit Obj: object that was a subsequent low confidence hit and that followed a valid cue	OBJ	V	1	1.310	LC-HIT	 2.4368	0	0.28213
362.001	1.000	Valid Other Obj Cue: valid cue where following stimulus was an untested or no response object	OBJ	V	1	0.809	NR	NR	UT	UT
364.001	0.500	Valid Other Obj: stimulus that was an untested or no response object and that followed a valid cue	OBJ	V	1	0.809	NR	NR	UT	UT
