onset	duration	trial_type	Object_Cond	Validity_Cond	Obj_Accuracy	Obj_Acc_RT	Subseq_Recog	Subseq_Recog_RT	Subseq_Source_Mem_Acc	Subseq_Source_Mem_Acc_RT
4.001	1.000	Valid Other Greeble Cue: valid cue where following stimulus was an untested or no response greeble	GRE	V	1	0.97886	UT	UT	UT	UT
10.001	0.500	Valid Other Greeble: stimulus that was an untested or no response greeble and that followed a valid cue	GRE	V	1	0.97886	UT	UT	UT	UT
12.001	1.000	Valid HC-Hit Cue: valid cue where following object was a subsequent high confidence hit	OBJ	V	1	 0.7113	HC-HIT	 1.8505	1	0.067099
14.001	0.500	Valid HC-Hit Obj: object that was a subsequent high confidence hit and that followed a valid cue	OBJ	V	1	 0.7113	HC-HIT	 1.8505	1	0.067099
16.002	1.000	Valid HC-Hit Cue: valid cue where following object was a subsequent high confidence hit	OBJ	V	1	0.67333	HC-HIT	 1.2256	1	0.083792
20.002	0.500	Valid HC-Hit Obj: object that was a subsequent high confidence hit and that followed a valid cue	OBJ	V	1	0.67333	HC-HIT	 1.2256	1	0.083792
22.001	1.000	Valid Other Greeble Cue: valid cue where following stimulus was an untested or no response greeble	GRE	V	1	0.73589	UT	UT	UT	UT
28.001	0.500	Valid Other Greeble: stimulus that was an untested or no response greeble and that followed a valid cue	GRE	V	1	0.73589	UT	UT	UT	UT
30.001	1.000	Invalid Miss Cue: invalid cue where following object was a subsequent miss	OBJ	NV	1	0.66657	LC-MISS	 1.0921	UT	UT
34.001	0.500	Invalid Miss Obj: object that was a subsequent miss and that followed an invalid cue	OBJ	NV	1	0.66657	LC-MISS	 1.0921	UT	UT
36.001	1.000	Valid Other Obj Cue: valid cue where following stimulus was an untested or no response object	OBJ	V	1	0.79303	UT	UT	UT	UT
42.001	0.500	Valid Other Obj: stimulus that was an untested or no response object and that followed a valid cue	OBJ	V	1	0.79303	UT	UT	UT	UT
46.002	1.000	Valid HC-Hit Cue: valid cue where following object was a subsequent high confidence hit	OBJ	V	1	0.73915	HC-HIT	 1.4757	0	0.25389
48.002	0.500	Valid HC-Hit Obj: object that was a subsequent high confidence hit and that followed a valid cue	OBJ	V	1	0.73915	HC-HIT	 1.4757	0	0.25389
50.001	1.000	Valid HC-Hit Cue: valid cue where following object was a subsequent high confidence hit	OBJ	V	1	0.65316	HC-HIT	 1.4587	0	0.21804
54.001	0.500	Valid HC-Hit Obj: object that was a subsequent high confidence hit and that followed a valid cue	OBJ	V	1	0.65316	HC-HIT	 1.4587	0	0.21804
56.002	1.000	Invalid LC-Hit Cue: invalid cue where following object was a subsequent low confidence hit	OBJ	NV	1	0.96828	LC-HIT	 2.6136	0	0.31511
58.002	0.500	Invalid LC-Hit Obj: object that was a subsequent low confidence hit and that followed an invalid cue	OBJ	NV	1	0.96828	LC-HIT	 2.6136	0	0.31511
60.002	1.000	Valid Miss Cue: valid cue where following object was a subsequent miss	OBJ	V	1	0.71224	HC-MISS	 1.0015	UT	UT
66.002	0.500	Valid Miss Obj: object that was a subsequent miss and that followed a valid cue	OBJ	V	1	0.71224	HC-MISS	 1.0015	UT	UT
68.001	1.000	Valid Other Greeble Cue: valid cue where following stimulus was an untested or no response greeble	GRE	V	1	0.74807	UT	UT	UT	UT
70.001	0.500	Valid Other Greeble: stimulus that was an untested or no response greeble and that followed a valid cue	GRE	V	1	0.74807	UT	UT	UT	UT
72.002	1.000	Valid Miss Cue: valid cue where following object was a subsequent miss	OBJ	V	1	0.69477	HC-MISS	 1.6118	UT	UT
76.002	0.500	Valid Miss Obj: object that was a subsequent miss and that followed a valid cue	OBJ	V	1	0.69477	HC-MISS	 1.6118	UT	UT
78.001	1.000	Valid Miss Cue: valid cue where following object was a subsequent miss	OBJ	V	1	0.89301	LC-MISS	 1.2967	UT	UT
84.001	0.500	Valid Miss Obj: object that was a subsequent miss and that followed a valid cue	OBJ	V	1	0.89301	LC-MISS	 1.2967	UT	UT
86.001	1.000	Valid Miss Cue: valid cue where following object was a subsequent miss	OBJ	V	1	0.67182	HC-MISS	0.91648	UT	UT
90.001	0.500	Valid Miss Obj: object that was a subsequent miss and that followed a valid cue	OBJ	V	1	0.67182	HC-MISS	0.91648	UT	UT
94.001	1.000	Valid Other Greeble Cue: valid cue where following stimulus was an untested or no response greeble	GRE	V	1	 0.7437	UT	UT	UT	UT
98.001	0.500	Valid Other Greeble: stimulus that was an untested or no response greeble and that followed a valid cue	GRE	V	1	 0.7437	UT	UT	UT	UT
100.001	1.000	Invalid Miss Cue: invalid cue where following object was a subsequent miss	OBJ	NV	1	0.84981	LC-MISS	 1.2526	UT	UT
102.001	0.500	Invalid Miss Obj: object that was a subsequent miss and that followed an invalid cue	OBJ	NV	1	0.84981	LC-MISS	 1.2526	UT	UT
106.002	1.000	Valid Miss Cue: valid cue where following object was a subsequent miss	OBJ	V	1	0.80284	HC-MISS	 1.0649	UT	UT
110.002	0.500	Valid Miss Obj: object that was a subsequent miss and that followed a valid cue	OBJ	V	1	0.80284	HC-MISS	 1.0649	UT	UT
114.002	1.000	Valid HC-Hit Cue: valid cue where following object was a subsequent high confidence hit	OBJ	V	1	0.78532	HC-HIT	 2.2016	0	1.2532
118.002	0.500	Valid HC-Hit Obj: object that was a subsequent high confidence hit and that followed a valid cue	OBJ	V	1	0.78532	HC-HIT	 2.2016	0	1.2532
120.001	1.000	Valid Other Obj Cue: valid cue where following stimulus was an untested or no response object	OBJ	V	1	0.90946	UT	UT	UT	UT
122.001	0.500	Valid Other Obj: stimulus that was an untested or no response object and that followed a valid cue	OBJ	V	1	0.90946	UT	UT	UT	UT
124.001	1.000	Valid HC-Hit Cue: valid cue where following object was a subsequent high confidence hit	OBJ	V	1	 1.0174	HC-HIT	 1.1719	1	0.098111
126.001	0.500	Valid HC-Hit Obj: object that was a subsequent high confidence hit and that followed a valid cue	OBJ	V	1	 1.0174	HC-HIT	 1.1719	1	0.098111
128.001	1.000	Valid HC-Hit Cue: valid cue where following object was a subsequent high confidence hit	OBJ	V	1	0.69725	HC-HIT	 2.3629	0	0.44505
134.001	0.500	Valid HC-Hit Obj: object that was a subsequent high confidence hit and that followed a valid cue	OBJ	V	1	0.69725	HC-HIT	 2.3629	0	0.44505
136.001	1.000	Valid Other Greeble Cue: valid cue where following stimulus was an untested or no response greeble	GRE	V	1	0.69936	UT	UT	UT	UT
140.001	0.500	Valid Other Greeble: stimulus that was an untested or no response greeble and that followed a valid cue	GRE	V	1	0.69936	UT	UT	UT	UT
142.002	1.000	Valid HC-Hit Cue: valid cue where following object was a subsequent high confidence hit	OBJ	V	1	0.91923	HC-HIT	 2.6389	0	0.32504
144.002	0.500	Valid HC-Hit Obj: object that was a subsequent high confidence hit and that followed a valid cue	OBJ	V	1	0.91923	HC-HIT	 2.6389	0	0.32504
146.001	1.000	Valid HC-Hit Cue: valid cue where following object was a subsequent high confidence hit	OBJ	V	1	0.77786	HC-HIT	 1.4254	0	0.14917
148.001	0.500	Valid HC-Hit Obj: object that was a subsequent high confidence hit and that followed a valid cue	OBJ	V	1	0.77786	HC-HIT	 1.4254	0	0.14917
152.001	1.000	Valid LC-Hit Cue: valid cue where following object was a subsequent low confidence hit	OBJ	V	1	0.72484	LC-HIT	 1.9423	1	0.22382
154.001	0.500	Valid LC-Hit Obj: object that was a subsequent low confidence hit and that followed a valid cue	OBJ	V	1	0.72484	LC-HIT	 1.9423	1	0.22382
156.001	1.000	Invalid Miss Cue: invalid cue where following object was a subsequent miss	OBJ	NV	1	0.85394	HC-MISS	 1.3571	UT	UT
160.001	0.500	Invalid Miss Obj: object that was a subsequent miss and that followed an invalid cue	OBJ	NV	1	0.85394	HC-MISS	 1.3571	UT	UT
164.001	1.000	Valid HC-Hit Cue: valid cue where following object was a subsequent high confidence hit	OBJ	V	1	0.65342	HC-HIT	 1.8309	1	0.21795
168.001	0.500	Valid HC-Hit Obj: object that was a subsequent high confidence hit and that followed a valid cue	OBJ	V	1	0.65342	HC-HIT	 1.8309	1	0.21795
170.001	1.000	Valid HC-Hit Cue: valid cue where following object was a subsequent high confidence hit	OBJ	V	1	0.72456	HC-HIT	 1.1931	1	0.16608
176.001	0.500	Valid HC-Hit Obj: object that was a subsequent high confidence hit and that followed a valid cue	OBJ	V	1	0.72456	HC-HIT	 1.1931	1	0.16608
178.002	1.000	Valid Other Greeble Cue: valid cue where following stimulus was an untested or no response greeble	GRE	V	1	0.78051	UT	UT	UT	UT
184.002	0.500	Valid Other Greeble: stimulus that was an untested or no response greeble and that followed a valid cue	GRE	V	1	0.78051	UT	UT	UT	UT
186.001	1.000	Valid Other Greeble Cue: valid cue where following stimulus was an untested or no response greeble	GRE	V	1	0.83246	UT	UT	UT	UT
188.001	0.500	Valid Other Greeble: stimulus that was an untested or no response greeble and that followed a valid cue	GRE	V	1	0.83246	UT	UT	UT	UT
190.002	1.000	Valid Other Greeble Cue: valid cue where following stimulus was an untested or no response greeble	GRE	V	1	0.58483	UT	UT	UT	UT
196.002	0.500	Valid Other Greeble: stimulus that was an untested or no response greeble and that followed a valid cue	GRE	V	1	0.58483	UT	UT	UT	UT
200.001	1.000	Invalid HC-Hit Cue: invalid cue where following object was a subsequent high confidence hit	OBJ	NV	1	   1.09	HC-HIT	 1.0464	NR	NR
202.001	0.500	Invalid HC-Hit Obj: object that was a subsequent high confidence hit and that followed an invalid cue	OBJ	NV	1	   1.09	HC-HIT	 1.0464	NR	NR
208.002	1.000	Valid Other Obj Cue: valid cue where following stimulus was an untested or no response object	OBJ	V	1	 1.0464	UT	UT	UT	UT
212.002	0.500	Valid Other Obj: stimulus that was an untested or no response object and that followed a valid cue	OBJ	V	1	 1.0464	UT	UT	UT	UT
214.001	1.000	Valid HC-Hit Cue: valid cue where following object was a subsequent high confidence hit	OBJ	V	1	0.77449	HC-HIT	 1.6045	1	0.36562
220.001	0.500	Valid HC-Hit Obj: object that was a subsequent high confidence hit and that followed a valid cue	OBJ	V	1	0.77449	HC-HIT	 1.6045	1	0.36562
222.001	1.000	Valid HC-Hit Cue: valid cue where following object was a subsequent high confidence hit	OBJ	V	1	0.77433	HC-HIT	  1.127	1	0.11261
228.001	0.500	Valid HC-Hit Obj: object that was a subsequent high confidence hit and that followed a valid cue	OBJ	V	1	0.77433	HC-HIT	  1.127	1	0.11261
232.002	1.000	Valid Miss Cue: valid cue where following object was a subsequent miss	OBJ	V	1	 1.9521	LC-MISS	 2.2643	UT	UT
234.002	0.500	Valid Miss Obj: object that was a subsequent miss and that followed a valid cue	OBJ	V	1	 1.9521	LC-MISS	 2.2643	UT	UT
236.001	1.000	Valid Other Greeble Cue: valid cue where following stimulus was an untested or no response greeble	GRE	V	1	0.76936	UT	UT	UT	UT
240.001	0.500	Valid Other Greeble: stimulus that was an untested or no response greeble and that followed a valid cue	GRE	V	1	0.76936	UT	UT	UT	UT
242.001	1.000	Valid Other Greeble Cue: valid cue where following stimulus was an untested or no response greeble	GRE	V	1	 0.6988	UT	UT	UT	UT
248.001	0.500	Valid Other Greeble: stimulus that was an untested or no response greeble and that followed a valid cue	GRE	V	1	 0.6988	UT	UT	UT	UT
250.001	1.000	Invalid HC-Hit Cue: invalid cue where following object was a subsequent high confidence hit	OBJ	NV	1	0.69717	HC-HIT	0.99514	0	0.12534
256.002	0.500	Invalid HC-Hit Obj: object that was a subsequent high confidence hit and that followed an invalid cue	OBJ	NV	1	0.69717	HC-HIT	0.99514	0	0.12534
260.001	1.000	Valid Other Obj Cue: valid cue where following stimulus was an untested or no response object	OBJ	V	1	0.77403	UT	UT	UT	UT
266.001	0.500	Valid Other Obj: stimulus that was an untested or no response object and that followed a valid cue	OBJ	V	1	0.77403	UT	UT	UT	UT
268.001	1.000	Valid LC-Hit Cue: valid cue where following object was a subsequent low confidence hit	OBJ	V	1	0.81534	LC-HIT	 2.8324	1	0.44676
272.001	0.500	Valid LC-Hit Obj: object that was a subsequent low confidence hit and that followed a valid cue	OBJ	V	1	0.81534	LC-HIT	 2.8324	1	0.44676
278.001	1.000	Valid Other Greeble Cue: valid cue where following stimulus was an untested or no response greeble	GRE	V	1	0.79201	UT	UT	UT	UT
280.001	0.500	Valid Other Greeble: stimulus that was an untested or no response greeble and that followed a valid cue	GRE	V	1	0.79201	UT	UT	UT	UT
282.002	1.000	Invalid HC-Hit Cue: invalid cue where following object was a subsequent high confidence hit	OBJ	NV	1	0.74596	HC-HIT	 2.3451	1	0.30584
286.002	0.500	Invalid HC-Hit Obj: object that was a subsequent high confidence hit and that followed an invalid cue	OBJ	NV	1	0.74596	HC-HIT	 2.3451	1	0.30584
288.002	1.000	Valid Miss Cue: valid cue where following object was a subsequent miss	OBJ	V	1	0.72093	HC-MISS	 1.0436	UT	UT
294.002	0.500	Valid Miss Obj: object that was a subsequent miss and that followed a valid cue	OBJ	V	1	0.72093	HC-MISS	 1.0436	UT	UT
296.001	1.000	Valid Other Greeble Cue: valid cue where following stimulus was an untested or no response greeble	GRE	V	1	0.72093	UT	UT	UT	UT
302.001	0.500	Valid Other Greeble: stimulus that was an untested or no response greeble and that followed a valid cue	GRE	V	1	0.72093	UT	UT	UT	UT
304.001	1.000	Valid Miss Cue: valid cue where following object was a subsequent miss	OBJ	V	1	0.85293	LC-MISS	 1.1442	UT	UT
306.001	0.500	Valid Miss Obj: object that was a subsequent miss and that followed a valid cue	OBJ	V	1	0.85293	LC-MISS	 1.1442	UT	UT
310.001	1.000	Valid Other Greeble Cue: valid cue where following stimulus was an untested or no response greeble	GRE	V	1	0.73971	UT	UT	UT	UT
314.001	0.500	Valid Other Greeble: stimulus that was an untested or no response greeble and that followed a valid cue	GRE	V	1	0.73971	UT	UT	UT	UT
316.002	1.000	Invalid LC-Hit Cue: invalid cue where following object was a subsequent low confidence hit	OBJ	NV	1	0.66052	LC-HIT	 1.9152	1	0.73642
322.002	0.500	Invalid LC-Hit Obj: object that was a subsequent low confidence hit and that followed an invalid cue	OBJ	NV	1	0.66052	LC-HIT	 1.9152	1	0.73642
324.000	1.000	Valid HC-Hit Cue: valid cue where following object was a subsequent high confidence hit	OBJ	V	1	0.77399	HC-HIT	 1.8027	1	0.11031
328.000	0.500	Valid HC-Hit Obj: object that was a subsequent high confidence hit and that followed a valid cue	OBJ	V	1	0.77399	HC-HIT	 1.8027	1	0.11031
330.001	1.000	Valid Other Obj Cue: valid cue where following stimulus was an untested or no response object	OBJ	V	1	0.67292	UT	UT	UT	UT
332.001	0.500	Valid Other Obj: stimulus that was an untested or no response object and that followed a valid cue	OBJ	V	1	0.67292	UT	UT	UT	UT
334.001	1.000	Valid Other Greeble Cue: valid cue where following stimulus was an untested or no response greeble	GRE	V	1	0.66954	UT	UT	UT	UT
336.001	0.500	Valid Other Greeble: stimulus that was an untested or no response greeble and that followed a valid cue	GRE	V	1	0.66954	UT	UT	UT	UT
338.001	1.000	Valid HC-Hit Cue: valid cue where following object was a subsequent high confidence hit	OBJ	V	1	0.73474	HC-HIT	0.92393	1	0.090986
342.001	0.500	Valid HC-Hit Obj: object that was a subsequent high confidence hit and that followed a valid cue	OBJ	V	1	0.73474	HC-HIT	0.92393	1	0.090986
344.001	1.000	Invalid Other Greeble Cue: invalid cue where following stimulus was an untested or no response greeble	GRE	NV	1	0.64225	UT	UT	UT	UT
346.001	0.500	Invalid Other Greeble: stimulus that was an untested or no response greeble and that followed a invalid cue	GRE	NV	1	0.64225	UT	UT	UT	UT
348.001	1.000	Valid HC-Hit Cue: valid cue where following object was a subsequent high confidence hit	OBJ	V	1	0.72472	HC-HIT	 1.5851	1	0.10107
352.001	0.500	Valid HC-Hit Obj: object that was a subsequent high confidence hit and that followed a valid cue	OBJ	V	1	0.72472	HC-HIT	 1.5851	1	0.10107
354.001	1.000	Valid HC-Hit Cue: valid cue where following object was a subsequent high confidence hit	OBJ	V	1	0.64826	HC-HIT	 1.3642	1	0.32247
356.001	0.500	Valid HC-Hit Obj: object that was a subsequent high confidence hit and that followed a valid cue	OBJ	V	1	0.64826	HC-HIT	 1.3642	1	0.32247
358.001	1.000	Invalid Other Greeble Cue: invalid cue where following stimulus was an untested or no response greeble	GRE	NV	NR	NR	UT	UT	UT	UT
364.001	0.500	Invalid Other Greeble: stimulus that was an untested or no response greeble and that followed a invalid cue	GRE	NV	NR	NR	UT	UT	UT	UT
