onset	duration	trial_number	event_type	executed_movement	correct_movement	shown_stimulus	reported_gs	correct_gs	included_trial	reason_for_exclusion
14	21	1	stimulus	n/a	n/a	white X	n/a	n/a	0	test trial
35	7.98390259989537	1	stimulus	n/a	n/a	CCGOQQGO	2	2	0	test trial
42.9799999999814	5	1	stimulus	n/a	n/a	white X	n/a	n/a	0	test trial
260.520000000019	21.02	2	stimulus	n/a	n/a	white X	n/a	n/a	1	n/a
281.529776599957	10.6746763000265	2	stimulus	n/a	n/a	QOQOOQQQ	0	0	1	n/a
282.759776599938	0	2	foot step	4	4	n/a	n/a	n/a	1	n/a
283.419776599971	0	2	foot step	3	3	n/a	n/a	n/a	1	n/a
284.059776599985	0	2	foot step	4	4	n/a	n/a	n/a	1	n/a
284.699776599999	0	2	foot step	1	1	n/a	n/a	n/a	1	n/a
285.409776599961	0	2	foot step	4	4	n/a	n/a	n/a	1	n/a
286.069776599994	0	2	foot step	1	1	n/a	n/a	n/a	1	n/a
286.739776599919	0	2	foot step	2	2	n/a	n/a	n/a	1	n/a
287.399776599952	0	2	foot step	4	4	n/a	n/a	n/a	1	n/a
288.069776599994	0	2	foot step	3	3	n/a	n/a	n/a	1	n/a
288.829776600003	0	2	foot step	2	2	n/a	n/a	n/a	1	n/a
289.509776599938	0	2	foot step	1	1	n/a	n/a	n/a	1	n/a
290.279776599957	0	2	foot step	2	2	n/a	n/a	n/a	1	n/a
292.199999999953	5	2	stimulus	n/a	n/a	white X	n/a	n/a	1	n/a
313.619999999995	24	3	stimulus	n/a	n/a	white X	n/a	n/a	1	n/a
337.623477099929	11.7905300999992	3	stimulus	n/a	n/a	QOQOOCOC	0	0	1	n/a
338.823477099882	0	3	foot step	4	4	n/a	n/a	n/a	1	n/a
339.493477099924	0	3	foot step	3	3	n/a	n/a	n/a	1	n/a
340.163477099966	0	3	foot step	4	4	n/a	n/a	n/a	1	n/a
340.833477099892	0	3	foot step	1	1	n/a	n/a	n/a	1	n/a
341.533477099962	0	3	foot step	4	4	n/a	n/a	n/a	1	n/a
342.233477099915	0	3	foot step	1	1	n/a	n/a	n/a	1	n/a
342.933477099985	0	3	foot step	2	2	n/a	n/a	n/a	1	n/a
343.693477099878	0	3	foot step	4	4	n/a	n/a	n/a	1	n/a
344.403477099957	0	3	foot step	3	3	n/a	n/a	n/a	1	n/a
345.093477099901	0	3	foot step	2	2	n/a	n/a	n/a	1	n/a
345.823477099882	0	3	foot step	1	1	n/a	n/a	n/a	1	n/a
346.633477099938	0	3	foot step	2	2	n/a	n/a	n/a	1	n/a
349.420000000042	5	3	stimulus	n/a	n/a	white X	n/a	n/a	1	n/a
366.380000000005	21	4	stimulus	n/a	n/a	white X	n/a	n/a	1	n/a
387.377466699923	7.84961889998522	4	stimulus	n/a	n/a	CCQGQCOO	1	1	1	n/a
388.537466699956	0	4	foot step	4	4	n/a	n/a	n/a	1	n/a
389.167466699961	0	4	foot step	3	3	n/a	n/a	n/a	1	n/a
389.857466699905	0	4	foot step	4	4	n/a	n/a	n/a	1	n/a
390.577466699877	0	4	foot step	1	1	n/a	n/a	n/a	1	n/a
391.257466699928	0	4	foot step	4	4	n/a	n/a	n/a	1	n/a
391.947466699872	0	4	foot step	1	1	n/a	n/a	n/a	1	n/a
392.587466699886	0	4	foot step	2	2	n/a	n/a	n/a	1	n/a
393.337466699886	0	4	foot step	4	4	n/a	n/a	n/a	1	n/a
394.037466699956	0	4	foot step	3	3	n/a	n/a	n/a	1	n/a
394.807466699975	0	4	foot step	2	2	n/a	n/a	n/a	1	n/a
395.239999999991	5	4	stimulus	n/a	n/a	white X	n/a	n/a	1	n/a
395.467466699891	0	4	foot step	1	1	n/a	n/a	n/a	1	n/a
396.17746669997	0	4	foot step	2	2	n/a	n/a	n/a	1	n/a
409.680000000051	23.02	5	stimulus	n/a	n/a	white X	n/a	n/a	1	n/a
432.695691599976	9.70237850002013	5	stimulus	n/a	n/a	CCOGOOGO	2	2	1	n/a
433.735691600014	0	5	foot step	4	4	n/a	n/a	n/a	1	n/a
434.33569159999	0	5	foot step	3	3	n/a	n/a	n/a	1	n/a
434.975691600004	0	5	foot step	4	4	n/a	n/a	n/a	1	n/a
435.5956916	0	5	foot step	1	1	n/a	n/a	n/a	1	n/a
436.275691599934	0	5	foot step	4	4	n/a	n/a	n/a	1	n/a
436.925691599958	0	5	foot step	1	1	n/a	n/a	n/a	1	n/a
437.545691599953	0	5	foot step	2	2	n/a	n/a	n/a	1	n/a
438.225691600004	0	5	foot step	4	4	n/a	n/a	n/a	1	n/a
438.905691599939	0	5	foot step	3	3	n/a	n/a	n/a	1	n/a
439.575691599981	0	5	foot step	2	2	n/a	n/a	n/a	1	n/a
440.175691599958	0	5	foot step	1	1	n/a	n/a	n/a	1	n/a
440.865691600018	0	5	foot step	2	2	n/a	n/a	n/a	1	n/a
442.400000000023	5	5	stimulus	n/a	n/a	white X	n/a	n/a	1	n/a
456.280000000028	23.02	6	stimulus	n/a	n/a	white X	n/a	n/a	1	n/a
479.30402349995	10.9709130000556	6	stimulus	n/a	n/a	GCQCCCCO	1	1	1	n/a
480.454023499973	0	6	foot step	4	4	n/a	n/a	n/a	1	n/a
481.094023499987	0	6	foot step	3	3	n/a	n/a	n/a	1	n/a
481.734023500001	0	6	foot step	4	4	n/a	n/a	n/a	1	n/a
482.314023499959	0	6	foot step	1	1	n/a	n/a	n/a	1	n/a
482.994023499894	0	6	foot step	4	4	n/a	n/a	n/a	1	n/a
483.664023499936	0	6	foot step	1	1	n/a	n/a	n/a	1	n/a
484.274023499922	0	6	foot step	2	2	n/a	n/a	n/a	1	n/a
484.954023499973	0	6	foot step	4	4	n/a	n/a	n/a	1	n/a
485.624023499899	0	6	foot step	3	3	n/a	n/a	n/a	1	n/a
486.374023499899	0	6	foot step	2	2	n/a	n/a	n/a	1	n/a
487.004023499903	0	6	foot step	1	1	n/a	n/a	n/a	1	n/a
487.724023499992	0	6	foot step	2	2	n/a	n/a	n/a	1	n/a
490.280000000028	5	6	stimulus	n/a	n/a	white X	n/a	n/a	1	n/a
499.199999999953	22	7	stimulus	n/a	n/a	white X	n/a	n/a	1	n/a
521.213542199926	9.68634939996991	7	stimulus	n/a	n/a	QQOCGCCQ	1	1	1	n/a
522.35354219994	0	7	foot step	4	4	n/a	n/a	n/a	1	n/a
522.933542199899	0	7	foot step	3	3	n/a	n/a	n/a	1	n/a
523.60354219994	0	7	foot step	4	4	n/a	n/a	n/a	1	n/a
524.213542199926	0	7	foot step	1	1	n/a	n/a	n/a	1	n/a
524.893542199978	0	7	foot step	4	4	n/a	n/a	n/a	1	n/a
525.523542199982	0	7	foot step	1	1	n/a	n/a	n/a	1	n/a
526.143542199978	0	7	foot step	2	2	n/a	n/a	n/a	1	n/a
526.823542199912	0	7	foot step	4	4	n/a	n/a	n/a	1	n/a
527.443542199908	0	7	foot step	3	3	n/a	n/a	n/a	1	n/a
528.053542199894	0	7	foot step	2	2	n/a	n/a	n/a	1	n/a
528.793542199885	0	7	foot step	1	1	n/a	n/a	n/a	1	n/a
529.463542199926	0	7	foot step	2	2	n/a	n/a	n/a	1	n/a
530.900000000023	5	7	stimulus	n/a	n/a	white X	n/a	n/a	1	n/a
548.140000000014	25.02	8	stimulus	n/a	n/a	white X	n/a	n/a	1	n/a
573.157352499897	10.6573009000858	8	stimulus	n/a	n/a	GGCCOGQC	3	3	1	n/a
574.327352499939	0	8	foot step	4	4	n/a	n/a	n/a	1	n/a
574.997352499864	0	8	foot step	3	3	n/a	n/a	n/a	1	n/a
575.677352499915	0	8	foot step	4	4	n/a	n/a	n/a	1	n/a
576.297352499911	0	8	foot step	1	1	n/a	n/a	n/a	1	n/a
576.977352499845	0	8	foot step	4	4	n/a	n/a	n/a	1	n/a
577.60735249985	0	8	foot step	1	1	n/a	n/a	n/a	1	n/a
578.30735249992	0	8	foot step	2	2	n/a	n/a	n/a	1	n/a
578.987352499855	0	8	foot step	4	4	n/a	n/a	n/a	1	n/a
579.657352499897	0	8	foot step	3	3	n/a	n/a	n/a	1	n/a
580.35735249985	0	8	foot step	2	2	n/a	n/a	n/a	1	n/a
581.007352499873	0	8	foot step	1	1	n/a	n/a	n/a	1	n/a
581.697352499934	0	8	foot step	2	2	n/a	n/a	n/a	1	n/a
583.819999999949	5	8	stimulus	n/a	n/a	white X	n/a	n/a	1	n/a
596.079999999958	25	9	stimulus	n/a	n/a	white X	n/a	n/a	1	n/a
621.085611599963	10.056792999967	9	stimulus	n/a	n/a	CCGCOGCC	2	2	1	n/a
622.18561159994	0	9	foot step	4	4	n/a	n/a	n/a	1	n/a
622.865611599991	0	9	foot step	3	3	n/a	n/a	n/a	1	n/a
623.485611599986	0	9	foot step	4	4	n/a	n/a	n/a	1	n/a
624.145611600019	0	9	foot step	1	1	n/a	n/a	n/a	1	n/a
624.835611599963	0	9	foot step	4	4	n/a	n/a	n/a	1	n/a
625.465611599968	0	9	foot step	1	1	n/a	n/a	n/a	1	n/a
626.075611599954	0	9	foot step	2	2	n/a	n/a	n/a	1	n/a
626.745611599996	0	9	foot step	4	4	n/a	n/a	n/a	1	n/a
627.395611600019	0	9	foot step	3	3	n/a	n/a	n/a	1	n/a
628.095611599972	0	9	foot step	2	2	n/a	n/a	n/a	1	n/a
628.765611600014	0	9	foot step	1	1	n/a	n/a	n/a	1	n/a
629.505611600005	0	9	foot step	2	2	n/a	n/a	n/a	1	n/a
631.140000000014	5	9	stimulus	n/a	n/a	white X	n/a	n/a	1	n/a
642	23	10	stimulus	n/a	n/a	white X	n/a	n/a	1	n/a
665.014447900001	8.72419879992958	10	stimulus	n/a	n/a	OGCCQCCC	1	1	1	n/a
666.074447900057	0	10	foot step	4	4	n/a	n/a	n/a	1	n/a
666.714447899954	0	10	foot step	3	3	n/a	n/a	n/a	1	n/a
667.414447900024	0	10	foot step	4	4	n/a	n/a	n/a	1	n/a
668.02444790001	0	10	foot step	1	1	n/a	n/a	n/a	1	n/a
668.764447900001	0	10	foot step	4	4	n/a	n/a	n/a	1	n/a
669.424447900034	0	10	foot step	1	1	n/a	n/a	n/a	1	n/a
670.104447899968	0	10	foot step	2	2	n/a	n/a	n/a	1	n/a
670.824447900057	0	10	foot step	4	4	n/a	n/a	n/a	1	n/a
671.53444790002	0	10	foot step	3	3	n/a	n/a	n/a	1	n/a
672.294447900029	0	10	foot step	2	2	n/a	n/a	n/a	1	n/a
673.02444790001	0	10	foot step	1	1	n/a	n/a	n/a	1	n/a
673.739999999991	5	10	stimulus	n/a	n/a	white X	n/a	n/a	1	n/a
673.814447900048	0	10	foot step	2	2	n/a	n/a	n/a	1	n/a
682.479999999981	21.02	11	stimulus	n/a	n/a	white X	n/a	n/a	1	n/a
703.502656999975	9.54102979996242	11	stimulus	n/a	n/a	GGCGCOQO	3	3	1	n/a
704.572656999924	0	11	foot step	4	4	n/a	n/a	n/a	1	n/a
705.242656999966	0	11	foot step	3	3	n/a	n/a	n/a	1	n/a
705.832656999934	0	11	foot step	4	4	n/a	n/a	n/a	1	n/a
706.44265699992	0	11	foot step	1	1	n/a	n/a	n/a	1	n/a
707.19265699992	0	11	foot step	4	4	n/a	n/a	n/a	1	n/a
707.872656999971	0	11	foot step	1	1	n/a	n/a	n/a	1	n/a
708.522656999994	0	11	foot step	2	2	n/a	n/a	n/a	1	n/a
709.19265699992	0	11	foot step	4	4	n/a	n/a	n/a	1	n/a
709.862656999961	0	11	foot step	3	3	n/a	n/a	n/a	1	n/a
710.532657000003	0	11	foot step	2	2	n/a	n/a	n/a	1	n/a
711.172657000017	0	11	foot step	1	1	n/a	n/a	n/a	1	n/a
711.852656999952	0	11	foot step	2	2	n/a	n/a	n/a	1	n/a
713.040000000037	5	11	stimulus	n/a	n/a	white X	n/a	n/a	1	n/a
n/a	0	1	foot step	4	4	n/a	n/a	n/a	0	test trial
n/a	0	1	foot step	3	3	n/a	n/a	n/a	0	test trial
n/a	0	1	foot step	4	4	n/a	n/a	n/a	0	test trial
n/a	0	1	foot step	1	1	n/a	n/a	n/a	0	test trial
n/a	0	1	foot step	4	4	n/a	n/a	n/a	0	test trial
n/a	0	1	foot step	1	1	n/a	n/a	n/a	0	test trial
n/a	0	1	foot step	2	2	n/a	n/a	n/a	0	test trial
n/a	0	1	foot step	4	4	n/a	n/a	n/a	0	test trial
n/a	0	1	foot step	3	3	n/a	n/a	n/a	0	test trial
n/a	0	1	foot step	2	2	n/a	n/a	n/a	0	test trial
n/a	0	1	foot step	1	1	n/a	n/a	n/a	0	test trial
n/a	0	1	foot step	2	2	n/a	n/a	n/a	0	test trial
