onset	duration	trial_type	TrialNum	StimCond	StimulusNum	Response	RT	Correct
0.11950000000000001	2	classification-probabilistic	1	1	10	L	0.983	1
5.9015	2	classification-deterministic	3	2	10	L	0.642	1
13.1235	2	classification-deterministic	5	2	10	L	0.647	1
18.4835	2	classification-deterministic	7	2	11	L	1.087	0
25.5885	2	classification-probabilistic	9	1	3	R	1.071	0
32.6	2	classification-probabilistic	11	1	11	R	0.7829999999999999	1
35.721000000000004	2	classification-probabilistic	13	1	10	L	0.9179999999999999	1
40.9985	2	classification-deterministic	15	2	10	L	0.91	1
44.085	2	classification-deterministic	17	2	2	R	0.893	1
48.479	2	classification-probabilistic	19	1	3	R	0.6970000000000001	0
51.689499999999995	2	classification-probabilistic	21	1	14	R	0.604	1
56.5945	2	classification-probabilistic	23	1	2	R	0.6459999999999999	1
60.105999999999995	2	classification-probabilistic	25	1	10	L	0.78	1
65.4925	2	classification-probabilistic	27	1	10	L	0.688	1
71.185	2	classification-deterministic	29	2	13	R	0.698	0
75.922	2	classification-deterministic	31	2	2	R	0.6920000000000001	1
80.61349999999999	2	classification-deterministic	33	2	5	R	0.722	1
84.4925	2	classification-probabilistic	35	1	10	L	0.92	1
91.2035	2	classification-deterministic	37	2	1	R	0.9179999999999999	0
97.3185	2	classification-deterministic	39	2	13	L	0.645	1
101.11	2	classification-deterministic	41	2	10	L	0.8740000000000001	1
105.80699999999999	2	classification-probabilistic	43	1	3	L	1.088	1
113.2035	2	classification-deterministic	45	2	2	L	0.6779999999999999	0
116.42	2	classification-probabilistic	47	1	4	L	1.038	1
119.6945	2	classification-probabilistic	49	1	4	L	0.677	1
124.5185	2	classification-probabilistic	51	1	5	R	0.9840000000000001	1
131.81900000000002	2	classification-deterministic	53	2	1	R	1.1440000000000001	0
139.3995	2	classification-probabilistic	55	1	6	R	0.981	0
142.9135	2	classification-probabilistic	57	1	14	R	0.968	1
146.309	2	classification-probabilistic	59	1	3	R	1.159	0
150.30200000000002	2	classification-probabilistic	61	1	11	R	0.823	1
156.4835	2	classification-deterministic	63	2	3	R	0.8370000000000001	1
159.9955	2	classification-probabilistic	65	1	7	L	1.056	1
163.088	2	classification-deterministic	67	2	3	R	0.915	1
167.4105	2	classification-deterministic	69	2	11	R	0.755	1
170.3135	2	classification-deterministic	71	2	3	R	0.833	1
174.30450000000002	2	classification-deterministic	73	2	13	R	0.7190000000000001	0
180.313	2	classification-probabilistic	75	1	1	R	0.882	1
185.5005	2	classification-probabilistic	77	1	6	R	0.764	0
190.5015	2	classification-deterministic	79	2	9	R	0.898	1
195.077	2	classification-deterministic	81	2	13	L	1.139	1
199.0855	2	classification-deterministic	83	2	3	R	0.818	1
202.11399999999998	2	classification-deterministic	85	2	7	L	1.297	1
208.786	2	classification-probabilistic	87	1	8	L	1.013	0
213.38549999999998	2	classification-probabilistic	89	1	8	R	0.7979999999999999	1
219.889	2	classification-deterministic	91	2	6	L	1.3880000000000001	1
223.11	2	classification-deterministic	93	2	5	R	1.554	1
226.786	2	classification-deterministic	95	2	7	L	1.423	1
229.9135	2	classification-deterministic	97	2	11	L	1.102	0
235.77700000000002	2	classification-probabilistic	99	1	5	R	0.92	1
240.77700000000002	2	classification-probabilistic	101	1	5	R	0.657	1
244.1895	2	classification-deterministic	103	2	12	R	1.401	1
248.0775	2	classification-probabilistic	105	1	11	R	1.964	1
252.3075	2	classification-probabilistic	107	1	4	L	1.088	1
257.919	2	classification-probabilistic	109	1	3	L	1.6880000000000002	1
261.6935	2	classification-probabilistic	111	1	11	R	2.14	1
265.7235	2	classification-deterministic	113	2	8	R	1.6969999999999998	1
272.31899999999996	2	classification-deterministic	115	2	1	L	0.97	1
275.61400000000003	2	classification-deterministic	117	2	6	L	0.72	1
281.8185	2	classification-probabilistic	119	1	13	L	0.735	1
289.1205	2	classification-probabilistic	121	1	6	L	0.7040000000000001	1
293.4955	2	classification-probabilistic	123	1	10	L	1.234	1
299.2	2	classification-deterministic	125	2	2	R	1.092	1
304.31	2	classification-deterministic	127	2	4	L	0.8059999999999999	1
307.576	2	classification-deterministic	129	2	13	L	0.941	1
310.8105	2	classification-deterministic	131	2	3	R	0.937	1
316.097	2	classification-probabilistic	133	1	11	R	0.938	1
322.31899999999996	2	classification-probabilistic	135	1	11	R	0.94	1
325.299	2	classification-probabilistic	137	1	14	R	0.7559999999999999	1
328.4925	2	classification-probabilistic	139	1	10	R	0.953	0
332.483	2	classification-deterministic	141	2	1	L	0.9159999999999999	1
336.6135	2	classification-deterministic	143	2	7	L	0.732	1
339.8115	2	classification-deterministic	145	2	3	R	0.9359999999999999	1
343.998	2	classification-deterministic	147	2	5	L	0.722	0
349.204	2	classification-deterministic	149	2	2	R	0.7659999999999999	1
352.7175	2	classification-probabilistic	151	1	10	L	0.7509999999999999	1
358.803	2	classification-probabilistic	153	1	11	L	0.648	0
362.379	2	classification-probabilistic	155	1	10	L	0.769	1
366.7795	2	classification-probabilistic	157	1	5	R	0.904	1
372.8185	2	classification-deterministic	159	2	12	L	1.187	0
377.0015	2	classification-deterministic	161	2	6	L	0.789	1
379.922	2	classification-deterministic	163	2	2	R	0.873	1
383.721	2	classification-probabilistic	165	1	6	R	1.186	0
386.7795	2	classification-probabilistic	167	1	5	R	0.777	1
391.4015	2	classification-probabilistic	169	1	9	R	1.365	0
395.8915	2	classification-deterministic	171	2	10	L	0.741	1
401.123	2	classification-deterministic	173	2	7	L	0.6459999999999999	1
405.303	2	classification-probabilistic	175	1	14	L	0.8390000000000001	0
408.3125	2	classification-probabilistic	177	1	2	R	0.932	1
411.7985	2	classification-deterministic	179	2	13	L	0.835	1
416.197	2	classification-deterministic	181	2	1	L	0.951	1
422.20550000000003	2	classification-probabilistic	183	1	11	R	0.9259999999999999	1
426.58900000000006	2	classification-probabilistic	185	1	1	R	0.8809999999999999	1
431.18399999999997	2	classification-probabilistic	187	1	12	L	0.937	-1
434.6135	2	classification-deterministic	189	2	10	L	0.903	1
437.72299999999996	2	classification-deterministic	191	2	7	L	0.752	1
443.28700000000003	2	classification-probabilistic	193	1	8	R	0.8240000000000001	1
449.0055	2	classification-probabilistic	195	1	10	L	0.679	1
452.189	2	classification-deterministic	197	2	13	L	0.9690000000000001	1
456.501	2	classification-deterministic	199	2	9	L	1.044	0
