onset	duration	trial_number	event_type	executed_movement	correct_movement	shown_stimulus	reported_gs	correct_gs	included_trial	reason_for_exclusion
13	22	1	stimulus	n/a	n/a	white X	n/a	n/a	0	test trial
35	10.6905437000096	1	stimulus	n/a	n/a	OQCQQGGG	3	3	0	test trial
35.4544117999612	0	1	finger press	1	2	n/a	n/a	n/a	0	test trial
36.191088499967	0	1	finger press	2	1	n/a	n/a	n/a	0	test trial
36.7104432999622	0	1	finger press	1	2	n/a	n/a	n/a	0	test trial
37.2546373999794	0	1	finger press	2	3	n/a	n/a	n/a	0	test trial
37.8305175999994	0	1	finger press	3	2	n/a	n/a	n/a	0	test trial
38.4541129000136	0	1	finger press	2	1	n/a	n/a	n/a	0	test trial
39.070356399985	0	1	finger press	1	3	n/a	n/a	n/a	0	test trial
39.6144397999742	0	1	finger press	3	2	n/a	n/a	n/a	0	test trial
40.2301790000056	0	1	finger press	2	4	n/a	n/a	n/a	0	test trial
40.8225247999653	0	1	finger press	4	2	n/a	n/a	n/a	0	test trial
41.3825464000111	0	1	finger press	2	4	n/a	n/a	n/a	0	test trial
41.9745450000046	0	1	finger press	4	1	n/a	n/a	n/a	0	test trial
45.7000000000116	5	1	stimulus	n/a	n/a	white X	n/a	n/a	0	test trial
54.0999999999767	23	2	stimulus	n/a	n/a	white X	n/a	n/a	1	n/a
77.0992569999653	8.29682950000279	2	stimulus	n/a	n/a	GQQOOOCG	2	2	1	n/a
77.510526099999	0	2	finger press	2	2	n/a	n/a	n/a	1	n/a
78.1425492999842	0	2	finger press	1	1	n/a	n/a	n/a	1	n/a
78.7264380999841	0	2	finger press	2	2	n/a	n/a	n/a	1	n/a
79.318210700003	0	2	finger press	3	3	n/a	n/a	n/a	1	n/a
79.9425902999938	0	2	finger press	2	2	n/a	n/a	n/a	1	n/a
80.646519300004	0	2	finger press	1	1	n/a	n/a	n/a	1	n/a
81.8784402000019	0	2	finger press	2	3	n/a	n/a	n/a	1	n/a
82.5583085999824	0	2	finger press	4	2	n/a	n/a	n/a	1	n/a
83.1912481999607	0	2	finger press	2	4	n/a	n/a	n/a	1	n/a
83.9105069999932	0	2	finger press	4	2	n/a	n/a	n/a	1	n/a
84.5103562999866	0	2	finger press	1	4	n/a	n/a	n/a	1	n/a
85.4000000000233	5	2	stimulus	n/a	n/a	white X	n/a	n/a	1	n/a
92.5	23	3	stimulus	n/a	n/a	white X	n/a	n/a	1	n/a
115.492207499978	8.77355460001854	3	stimulus	n/a	n/a	QGCQQGCG	3	3	1	n/a
115.926470400009	0	3	finger press	2	2	n/a	n/a	n/a	1	n/a
116.510511500004	0	3	finger press	1	1	n/a	n/a	n/a	1	n/a
117.062435799977	0	3	finger press	2	2	n/a	n/a	n/a	1	n/a
117.630563399987	0	3	finger press	3	3	n/a	n/a	n/a	1	n/a
118.270425800001	0	3	finger press	2	2	n/a	n/a	n/a	1	n/a
118.934606799972	0	3	finger press	1	1	n/a	n/a	n/a	1	n/a
119.582420999999	0	3	finger press	3	3	n/a	n/a	n/a	1	n/a
120.262426699977	0	3	finger press	2	2	n/a	n/a	n/a	1	n/a
121.08630580001	0	3	finger press	4	4	n/a	n/a	n/a	1	n/a
121.710487100005	0	3	finger press	2	2	n/a	n/a	n/a	1	n/a
122.358415699971	0	3	finger press	4	4	n/a	n/a	n/a	1	n/a
123.006477199961	0	3	finger press	1	1	n/a	n/a	n/a	1	n/a
124.280000000028	5	3	stimulus	n/a	n/a	white X	n/a	n/a	1	n/a
131.200000000012	23	4	stimulus	n/a	n/a	white X	n/a	n/a	1	n/a
154.197139700002	9.66869339998811	4	stimulus	n/a	n/a	GOCGQCQO	2	2	1	n/a
154.926356100012	0	4	finger press	2	2	n/a	n/a	n/a	1	n/a
155.566327999986	0	4	finger press	1	1	n/a	n/a	n/a	1	n/a
156.142448199971	0	4	finger press	2	2	n/a	n/a	n/a	1	n/a
156.686507700011	0	4	finger press	3	3	n/a	n/a	n/a	1	n/a
157.326491599961	0	4	finger press	2	2	n/a	n/a	n/a	1	n/a
157.998433300003	0	4	finger press	1	1	n/a	n/a	n/a	1	n/a
158.598281599989	0	4	finger press	3	3	n/a	n/a	n/a	1	n/a
159.255206100002	0	4	finger press	2	2	n/a	n/a	n/a	1	n/a
159.870414000005	0	4	finger press	4	4	n/a	n/a	n/a	1	n/a
160.542390399962	0	4	finger press	2	2	n/a	n/a	n/a	1	n/a
160.566471899976	0	4	finger press	1	4	n/a	n/a	n/a	1	n/a
161.142685399973	0	4	finger press	4	1	n/a	n/a	n/a	1	n/a
163.880000000005	5	4	stimulus	n/a	n/a	white X	n/a	n/a	1	n/a
170.679999999993	24	5	stimulus	n/a	n/a	white X	n/a	n/a	1	n/a
194.68157169997	8.66040029999567	5	stimulus	n/a	n/a	OOGGQCQQ	2	2	1	n/a
195.134325199993	0	5	finger press	2	2	n/a	n/a	n/a	1	n/a
195.766162799962	0	5	finger press	1	1	n/a	n/a	n/a	1	n/a
196.3426187	0	5	finger press	2	2	n/a	n/a	n/a	1	n/a
196.934307199961	0	5	finger press	3	3	n/a	n/a	n/a	1	n/a
197.566255200014	0	5	finger press	2	2	n/a	n/a	n/a	1	n/a
198.15848719998	0	5	finger press	1	1	n/a	n/a	n/a	1	n/a
198.734316399961	0	5	finger press	3	3	n/a	n/a	n/a	1	n/a
199.374356799992	0	5	finger press	2	2	n/a	n/a	n/a	1	n/a
200.046452299983	0	5	finger press	4	4	n/a	n/a	n/a	1	n/a
200.686354800011	0	5	finger press	2	2	n/a	n/a	n/a	1	n/a
201.326437100011	0	5	finger press	4	4	n/a	n/a	n/a	1	n/a
202.014260899974	0	5	finger press	1	1	n/a	n/a	n/a	1	n/a
203.340000000026	5	5	stimulus	n/a	n/a	white X	n/a	n/a	1	n/a
209.960000000021	21.02	6	stimulus	n/a	n/a	white X	n/a	n/a	1	n/a
230.982961500005	11.1622865999816	6	stimulus	n/a	n/a	GQOQQGOC	2	2	1	n/a
231.718106699991	0	6	finger press	2	2	n/a	n/a	n/a	1	n/a
232.375221299997	0	6	finger press	1	1	n/a	n/a	n/a	1	n/a
232.950390399958	0	6	finger press	2	2	n/a	n/a	n/a	1	n/a
233.583122699987	0	6	finger press	3	3	n/a	n/a	n/a	1	n/a
234.214187200007	0	6	finger press	2	2	n/a	n/a	n/a	1	n/a
234.830650999967	0	6	finger press	1	1	n/a	n/a	n/a	1	n/a
236.254019899992	0	6	finger press	3	3	n/a	n/a	n/a	1	n/a
236.782377599971	0	6	finger press	2	2	n/a	n/a	n/a	1	n/a
238.141999199986	0	6	finger press	2	4	n/a	n/a	n/a	1	n/a
238.774414199986	0	6	finger press	4	2	n/a	n/a	n/a	1	n/a
239.381997899967	0	6	finger press	1	4	n/a	n/a	n/a	1	n/a
242.140000000014	5	6	stimulus	n/a	n/a	white X	n/a	n/a	1	n/a
249.179999999993	24.02	7	stimulus	n/a	n/a	white X	n/a	n/a	1	n/a
273.193202199996	8.09174359997269	7	stimulus	n/a	n/a	OCCQCGCQ	1	1	1	n/a
273.958308100002	0	7	finger press	2	2	n/a	n/a	n/a	1	n/a
274.58239180001	0	7	finger press	1	1	n/a	n/a	n/a	1	n/a
275.19028619997	0	7	finger press	2	2	n/a	n/a	n/a	1	n/a
275.83033159998	0	7	finger press	3	3	n/a	n/a	n/a	1	n/a
276.494382400007	0	7	finger press	2	2	n/a	n/a	n/a	1	n/a
277.14241249999	0	7	finger press	1	1	n/a	n/a	n/a	1	n/a
277.766476399964	0	7	finger press	3	3	n/a	n/a	n/a	1	n/a
278.398923599976	0	7	finger press	2	2	n/a	n/a	n/a	1	n/a
279.006451399997	0	7	finger press	4	4	n/a	n/a	n/a	1	n/a
279.606278799998	0	7	finger press	2	2	n/a	n/a	n/a	1	n/a
280.246350099973	0	7	finger press	4	4	n/a	n/a	n/a	1	n/a
280.89426869998	0	7	finger press	1	1	n/a	n/a	n/a	1	n/a
281.280000000028	5	7	stimulus	n/a	n/a	white X	n/a	n/a	1	n/a
288.080000000016	25	8	stimulus	n/a	n/a	white X	n/a	n/a	1	n/a
313.08941700001	8.96363949996885	8	stimulus	n/a	n/a	QQOCOOQO	0	0	1	n/a
313.830309799989	0	8	finger press	2	2	n/a	n/a	n/a	1	n/a
314.462358499994	0	8	finger press	1	1	n/a	n/a	n/a	1	n/a
315.062377800001	0	8	finger press	2	2	n/a	n/a	n/a	1	n/a
315.622410400014	0	8	finger press	3	3	n/a	n/a	n/a	1	n/a
316.270166200004	0	8	finger press	2	2	n/a	n/a	n/a	1	n/a
316.96638659999	0	8	finger press	1	1	n/a	n/a	n/a	1	n/a
317.686593399965	0	8	finger press	3	3	n/a	n/a	n/a	1	n/a
318.390611200011	0	8	finger press	2	2	n/a	n/a	n/a	1	n/a
319.782298800012	0	8	finger press	2	4	n/a	n/a	n/a	1	n/a
320.438756399963	0	8	finger press	4	2	n/a	n/a	n/a	1	n/a
321.118144900014	0	8	finger press	1	4	n/a	n/a	n/a	1	n/a
322.059999999998	5	8	stimulus	n/a	n/a	white X	n/a	n/a	1	n/a
329.219999999972	23	9	stimulus	n/a	n/a	white X	n/a	n/a	1	n/a
352.228204499988	8.32394500001101	9	stimulus	n/a	n/a	QCGOGOOG	3	3	1	n/a
352.702275399992	0	9	finger press	2	2	n/a	n/a	n/a	1	n/a
353.302277499984	0	9	finger press	1	1	n/a	n/a	n/a	1	n/a
353.918448499986	0	9	finger press	2	2	n/a	n/a	n/a	1	n/a
354.550766800006	0	9	finger press	3	3	n/a	n/a	n/a	1	n/a
355.150372300006	0	9	finger press	2	2	n/a	n/a	n/a	1	n/a
355.814326899999	0	9	finger press	1	1	n/a	n/a	n/a	1	n/a
356.502397299977	0	9	finger press	3	3	n/a	n/a	n/a	1	n/a
357.150303500006	0	9	finger press	2	2	n/a	n/a	n/a	1	n/a
357.854293799959	0	9	finger press	4	4	n/a	n/a	n/a	1	n/a
358.454267099965	0	9	finger press	2	2	n/a	n/a	n/a	1	n/a
359.142280399974	0	9	finger press	4	4	n/a	n/a	n/a	1	n/a
359.750292599958	0	9	finger press	1	1	n/a	n/a	n/a	1	n/a
360.559999999998	5	9	stimulus	n/a	n/a	white X	n/a	n/a	1	n/a
368.219999999972	23	10	stimulus	n/a	n/a	white X	n/a	n/a	0	erroneous trial
391.216258600005	10.3770870000008	10	stimulus	n/a	n/a	QQCOGGOQ	2	2	0	erroneous trial
391.630212599994	0	10	finger press	2	2	n/a	n/a	n/a	0	erroneous trial
392.230406699993	0	10	finger press	1	1	n/a	n/a	n/a	0	erroneous trial
392.82282989996	0	10	finger press	2	2	n/a	n/a	n/a	0	erroneous trial
393.486286400002	0	10	finger press	3	3	n/a	n/a	n/a	0	erroneous trial
394.118362999987	0	10	finger press	2	2	n/a	n/a	n/a	0	erroneous trial
394.734264899977	0	10	finger press	1	1	n/a	n/a	n/a	0	erroneous trial
395.398278900015	0	10	finger press	3	3	n/a	n/a	n/a	0	erroneous trial
396.006182299985	0	10	finger press	2	2	n/a	n/a	n/a	0	erroneous trial
397.350387200015	0	10	finger press	2	4	n/a	n/a	n/a	0	erroneous trial
398.646400999976	0	10	finger press	1	2	n/a	n/a	n/a	0	erroneous trial
401.599999999977	5	10	stimulus	n/a	n/a	white X	n/a	n/a	0	erroneous trial
409.080000000016	22	11	stimulus	n/a	n/a	white X	n/a	n/a	1	n/a
431.08464799996	9.73486250004498	11	stimulus	n/a	n/a	CQCCOQOC	0	0	1	n/a
431.934310199984	0	11	finger press	2	2	n/a	n/a	n/a	1	n/a
432.590209999995	0	11	finger press	1	1	n/a	n/a	n/a	1	n/a
433.198306099977	0	11	finger press	2	2	n/a	n/a	n/a	1	n/a
433.862632600009	0	11	finger press	3	3	n/a	n/a	n/a	1	n/a
434.454248199996	0	11	finger press	2	2	n/a	n/a	n/a	1	n/a
435.053896999976	0	11	finger press	1	1	n/a	n/a	n/a	1	n/a
435.901896199968	0	11	finger press	3	3	n/a	n/a	n/a	1	n/a
436.598410799983	0	11	finger press	2	2	n/a	n/a	n/a	1	n/a
437.414324599958	0	11	finger press	4	4	n/a	n/a	n/a	1	n/a
438.014368499978	0	11	finger press	2	2	n/a	n/a	n/a	1	n/a
438.687753900012	0	11	finger press	4	4	n/a	n/a	n/a	1	n/a
439.341903199966	0	11	finger press	1	1	n/a	n/a	n/a	1	n/a
440.820000000007	5	11	stimulus	n/a	n/a	white X	n/a	n/a	1	n/a
