onset	duration	trial_number	event_type	executed_movement	correct_movement	shown_stimulus	included_trial	reason_for_exclusion
12	23	1	stimulus	n/a	n/a	white X	0	test trial
35	9.50347970001167	1	stimulus	n/a	n/a	red X	0	test trial
35.3695777999819	0	1	finger press	4	4	n/a	0	test trial
35.8912601000047	0	1	finger press	3	3	n/a	0	test trial
36.4741369999829	0	1	finger press	4	4	n/a	0	test trial
37.0226352000027	0	1	finger press	1	1	n/a	0	test trial
37.5769969999674	0	1	finger press	4	4	n/a	0	test trial
38.1758908999618	0	1	finger press	1	1	n/a	0	test trial
38.7357758000144	0	1	finger press	2	2	n/a	0	test trial
39.4173978000181	0	1	finger press	4	4	n/a	0	test trial
39.9838906999794	0	1	finger press	3	3	n/a	0	test trial
40.5923693999648	0	1	finger press	2	2	n/a	0	test trial
41.2259515000042	0	1	finger press	1	1	n/a	0	test trial
41.831944799982	0	1	finger press	2	2	n/a	0	test trial
44.5	5	1	stimulus	n/a	n/a	white X	0	test trial
58.7199999999721	22.02	2	stimulus	n/a	n/a	white X	1	n/a
80.7369797999854	9.50333520001732	2	stimulus	n/a	n/a	red X	1	n/a
81.3518073000014	0	2	finger press	4	4	n/a	1	n/a
81.8876601000084	0	2	finger press	3	3	n/a	1	n/a
82.4720299000037	0	2	finger press	4	4	n/a	1	n/a
83.1443198999623	0	2	finger press	1	1	n/a	1	n/a
83.6803558999673	0	2	finger press	4	4	n/a	1	n/a
84.3406668999814	0	2	finger press	1	1	n/a	1	n/a
84.8734583999612	0	2	finger press	2	2	n/a	1	n/a
85.3439904999686	0	2	finger press	4	4	n/a	1	n/a
85.9103465999942	0	2	finger press	3	3	n/a	1	n/a
86.455911499972	0	2	finger press	2	2	n/a	1	n/a
87.0765033999924	0	2	finger press	1	1	n/a	1	n/a
87.6420069999876	0	2	finger press	2	2	n/a	1	n/a
90.2399999999907	5	2	stimulus	n/a	n/a	white X	1	n/a
95.7800000000279	21.02	3	stimulus	n/a	n/a	white X	1	n/a
116.79774010001	9.50299069995526	3	stimulus	n/a	n/a	red X	1	n/a
117.281500499987	0	3	finger press	4	4	n/a	1	n/a
117.854843500012	0	3	finger press	3	3	n/a	1	n/a
118.358087399974	0	3	finger press	4	4	n/a	1	n/a
118.981177299982	0	3	finger press	1	1	n/a	1	n/a
119.582909399993	0	3	finger press	4	4	n/a	1	n/a
120.206365799997	0	3	finger press	1	1	n/a	1	n/a
120.802046999976	0	3	finger press	2	2	n/a	1	n/a
121.313677300001	0	3	finger press	4	4	n/a	1	n/a
121.912537499971	0	3	finger press	3	3	n/a	1	n/a
122.48711669998	0	3	finger press	2	2	n/a	1	n/a
123.114397400001	0	3	finger press	1	1	n/a	1	n/a
123.624254099966	0	3	finger press	2	2	n/a	1	n/a
126.299999999988	5	3	stimulus	n/a	n/a	white X	1	n/a
134.119999999995	21.02	4	stimulus	n/a	n/a	white X	1	n/a
155.137442499981	9.50297099997988	4	stimulus	n/a	n/a	red X	1	n/a
156.185401599971	0	4	finger press	4	4	n/a	1	n/a
156.781449200003	0	4	finger press	3	3	n/a	1	n/a
157.360398099991	0	4	finger press	4	4	n/a	1	n/a
157.966764300014	0	4	finger press	1	1	n/a	1	n/a
158.578057700011	0	4	finger press	4	4	n/a	1	n/a
159.205331799982	0	4	finger press	1	1	n/a	1	n/a
159.833571899973	0	4	finger press	2	2	n/a	1	n/a
160.398780399992	0	4	finger press	4	4	n/a	1	n/a
160.981804299983	0	4	finger press	3	3	n/a	1	n/a
161.537983599992	0	4	finger press	2	2	n/a	1	n/a
162.16951029998	0	4	finger press	1	1	n/a	1	n/a
162.874373900006	0	4	finger press	2	2	n/a	1	n/a
164.640000000014	5	4	stimulus	n/a	n/a	white X	1	n/a
170.280000000028	23.02	5	stimulus	n/a	n/a	white X	1	n/a
193.31096979999	9.50436610000907	5	stimulus	n/a	n/a	red X	1	n/a
193.830154899973	0	5	finger press	4	4	n/a	1	n/a
194.361200399988	0	5	finger press	3	3	n/a	1	n/a
194.894591799995	0	5	finger press	4	4	n/a	1	n/a
195.521179199975	0	5	finger press	1	1	n/a	1	n/a
196.114611500001	0	5	finger press	4	4	n/a	1	n/a
196.722145900014	0	5	finger press	1	1	n/a	1	n/a
197.305272999976	0	5	finger press	2	2	n/a	1	n/a
197.961615499982	0	5	finger press	4	4	n/a	1	n/a
198.516388799995	0	5	finger press	3	3	n/a	1	n/a
199.127963799983	0	5	finger press	2	2	n/a	1	n/a
199.757975500019	0	5	finger press	1	1	n/a	1	n/a
200.389509100001	0	5	finger press	2	2	n/a	1	n/a
202.820000000007	5	5	stimulus	n/a	n/a	white X	1	n/a
208.640000000014	21.02	6	stimulus	n/a	n/a	white X	1	n/a
229.663019099971	9.50309620000189	6	stimulus	n/a	n/a	red X	1	n/a
230.197240400012	0	6	finger press	4	4	n/a	1	n/a
230.838109900011	0	6	finger press	3	3	n/a	1	n/a
231.454853400006	0	6	finger press	4	4	n/a	1	n/a
232.057983300008	0	6	finger press	1	1	n/a	1	n/a
232.653886399989	0	6	finger press	4	4	n/a	1	n/a
233.317453600001	0	6	finger press	1	1	n/a	1	n/a
233.886262600019	0	6	finger press	2	2	n/a	1	n/a
234.516481900006	0	6	finger press	4	4	n/a	1	n/a
235.094603699981	0	6	finger press	3	3	n/a	1	n/a
235.717171099968	0	6	finger press	2	2	n/a	1	n/a
236.296940299973	0	6	finger press	1	1	n/a	1	n/a
236.842016900016	0	6	finger press	2	2	n/a	1	n/a
239.159999999974	5	6	stimulus	n/a	n/a	white X	1	n/a
245.059999999998	23.02	7	stimulus	n/a	n/a	white X	1	n/a
268.079366399965	9.50260330003221	7	stimulus	n/a	n/a	red X	1	n/a
268.985486699967	0	7	finger press	4	4	n/a	1	n/a
269.632234499964	0	7	finger press	3	3	n/a	1	n/a
270.223267399997	0	7	finger press	4	4	n/a	1	n/a
270.822709399974	0	7	finger press	1	1	n/a	1	n/a
271.42332349997	0	7	finger press	4	4	n/a	1	n/a
272.046716999961	0	7	finger press	1	1	n/a	1	n/a
272.616936900013	0	7	finger press	2	2	n/a	1	n/a
273.377092999988	0	7	finger press	2	4	n/a	1	n/a
274.3827896	0	7	finger press	3	3	n/a	1	n/a
274.913483500015	0	7	finger press	2	2	n/a	1	n/a
275.621228599979	0	7	finger press	1	1	n/a	1	n/a
276.231365699961	0	7	finger press	2	2	n/a	1	n/a
277.580000000016	5	7	stimulus	n/a	n/a	white X	1	n/a
284.599999999977	23.02	8	stimulus	n/a	n/a	white X	1	n/a
307.624352200015	9.50329829996917	8	stimulus	n/a	n/a	red X	1	n/a
308.394349500013	0	8	finger press	4	4	n/a	1	n/a
309.057459899981	0	8	finger press	3	3	n/a	1	n/a
309.600288200018	0	8	finger press	4	4	n/a	1	n/a
310.168381099997	0	8	finger press	1	1	n/a	1	n/a
310.761457099987	0	8	finger press	4	4	n/a	1	n/a
311.388964199985	0	8	finger press	1	1	n/a	1	n/a
311.945522999973	0	8	finger press	2	2	n/a	1	n/a
312.48852459999	0	8	finger press	4	4	n/a	1	n/a
313.132296299969	0	8	finger press	3	3	n/a	1	n/a
313.751728700008	0	8	finger press	2	2	n/a	1	n/a
314.400998199999	0	8	finger press	1	1	n/a	1	n/a
315.054114900006	0	8	finger press	2	2	n/a	1	n/a
317.119999999995	5	8	stimulus	n/a	n/a	white X	1	n/a
323.099999999977	24.02	9	stimulus	n/a	n/a	white X	1	n/a
347.120736000012	9.5021212999709	9	stimulus	n/a	n/a	red X	1	n/a
348.038071299961	0	9	finger press	4	4	n/a	1	n/a
348.681935200002	0	9	finger press	3	3	n/a	1	n/a
349.221690999984	0	9	finger press	4	4	n/a	1	n/a
349.792138000019	0	9	finger press	1	1	n/a	1	n/a
350.422990699997	0	9	finger press	4	4	n/a	1	n/a
350.981364300009	0	9	finger press	1	1	n/a	1	n/a
351.526737599983	0	9	finger press	2	2	n/a	1	n/a
352.168318599986	0	9	finger press	4	4	n/a	1	n/a
352.709165400011	0	9	finger press	3	3	n/a	1	n/a
353.285174099961	0	9	finger press	2	2	n/a	1	n/a
353.892194400018	0	9	finger press	1	1	n/a	1	n/a
354.534738599963	0	9	finger press	2	2	n/a	1	n/a
356.619999999995	5	9	stimulus	n/a	n/a	white X	1	n/a
363.460000000021	24.02	10	stimulus	n/a	n/a	white X	1	n/a
387.477464299998	9.50342349999119	10	stimulus	n/a	n/a	red X	1	n/a
388.217701499991	0	10	finger press	4	4	n/a	1	n/a
388.770484799985	0	10	finger press	3	3	n/a	1	n/a
389.334001999989	0	10	finger press	4	4	n/a	1	n/a
389.973590100009	0	10	finger press	1	1	n/a	1	n/a
390.585033699987	0	10	finger press	4	4	n/a	1	n/a
391.167527800018	0	10	finger press	1	1	n/a	1	n/a
391.695590100018	0	10	finger press	2	2	n/a	1	n/a
392.268798300007	0	10	finger press	4	4	n/a	1	n/a
392.881280399975	0	10	finger press	3	3	n/a	1	n/a
393.439113600005	0	10	finger press	2	2	n/a	1	n/a
393.993611500016	0	10	finger press	1	1	n/a	1	n/a
394.557133900002	0	10	finger press	2	2	n/a	1	n/a
396.979999999981	5	10	stimulus	n/a	n/a	white X	1	n/a
403.080000000016	24	11	stimulus	n/a	n/a	white X	1	n/a
427.087178799964	9.50230640004156	11	stimulus	n/a	n/a	red X	1	n/a
428.184574200015	0	11	finger press	4	4	n/a	1	n/a
428.813750699977	0	11	finger press	3	3	n/a	1	n/a
429.367829299998	0	11	finger press	4	4	n/a	1	n/a
429.968479099975	0	11	finger press	1	1	n/a	1	n/a
430.589312799973	0	11	finger press	4	4	n/a	1	n/a
431.125044199987	0	11	finger press	1	1	n/a	1	n/a
431.718239900016	0	11	finger press	2	2	n/a	1	n/a
432.277159999998	0	11	finger press	4	4	n/a	1	n/a
432.823674499989	0	11	finger press	3	3	n/a	1	n/a
433.455607399985	0	11	finger press	2	2	n/a	1	n/a
434.080208799976	0	11	finger press	1	1	n/a	1	n/a
434.761197399988	0	11	finger press	2	2	n/a	1	n/a
436.580000000016	5	11	stimulus	n/a	n/a	white X	1	n/a
