onset	duration	trial_number	event_type	executed_movement	correct_movement	shown_stimulus	included_trial	reason_for_exclusion
10.9799999999814	24.02	1	stimulus	n/a	n/a	white X	0	test trial
35	9.51509509998141	1	stimulus	n/a	n/a	red X	0	test trial
35.9099999999744	0	1	foot step	3	4	n/a	0	test trial
36.5900000000256	0	1	foot step	4	3	n/a	0	test trial
37.2299999999814	0	1	foot step	3	4	n/a	0	test trial
37.8400000000256	0	1	foot step	1	1	n/a	0	test trial
38.460000000021	0	1	foot step	3	4	n/a	0	test trial
39.1500000000233	0	1	foot step	1	1	n/a	0	test trial
39.7700000000186	0	1	foot step	2	2	n/a	0	test trial
40.4400000000023	0	1	foot step	3	4	n/a	0	test trial
41.0999999999767	0	1	foot step	4	3	n/a	0	test trial
41.7199999999721	0	1	foot step	2	2	n/a	0	test trial
42.359999999986	0	1	foot step	1	1	n/a	0	test trial
43.039999999979	0	1	foot step	2	2	n/a	0	test trial
44.5200000000186	5	1	stimulus	n/a	n/a	white X	0	test trial
51.1199999999953	23.02	2	stimulus	n/a	n/a	white X	1	n/a
74.1401622999692	9.51535400003195	2	stimulus	n/a	n/a	red X	1	n/a
75.1001622999902	0	2	foot step	4	4	n/a	1	n/a
75.8201622999622	0	2	foot step	3	3	n/a	1	n/a
76.4601622999762	0	2	foot step	4	4	n/a	1	n/a
77.0901622999809	0	2	foot step	1	1	n/a	1	n/a
77.7101622999762	0	2	foot step	4	4	n/a	1	n/a
78.3401622999809	0	2	foot step	1	1	n/a	1	n/a
79.0301622999832	0	2	foot step	2	2	n/a	1	n/a
79.6401622999692	0	2	foot step	4	4	n/a	1	n/a
80.2601622999646	0	2	foot step	3	3	n/a	1	n/a
80.9201622999972	0	2	foot step	2	2	n/a	1	n/a
81.5801622999716	0	2	foot step	1	1	n/a	1	n/a
82.1801622999483	0	2	foot step	2	2	n/a	1	n/a
83.6599999999744	5	2	stimulus	n/a	n/a	white X	1	n/a
89.2600000000093	21	3	stimulus	n/a	n/a	white X	1	n/a
110.265276799968	9.50659300002735	3	stimulus	n/a	n/a	red X	1	n/a
111.255276799959	0	3	foot step	4	4	n/a	1	n/a
111.935276799952	0	3	foot step	3	3	n/a	1	n/a
112.615276799945	0	3	foot step	4	4	n/a	1	n/a
113.265276799968	0	3	foot step	1	1	n/a	1	n/a
113.855276799994	0	3	foot step	4	4	n/a	1	n/a
114.515276799968	0	3	foot step	1	1	n/a	1	n/a
115.21527679998	0	3	foot step	2	2	n/a	1	n/a
115.845276799984	0	3	foot step	4	4	n/a	1	n/a
116.515276799968	0	3	foot step	3	3	n/a	1	n/a
117.20527679997	0	3	foot step	2	2	n/a	1	n/a
117.855276799994	0	3	foot step	1	1	n/a	1	n/a
118.505276799959	0	3	foot step	2	2	n/a	1	n/a
119.780000000028	5	3	stimulus	n/a	n/a	white X	1	n/a
125.539999999979	23.02	4	stimulus	n/a	n/a	white X	1	n/a
148.553758499969	9.50734900002135	4	stimulus	n/a	n/a	red X	1	n/a
149.493758499972	0	4	foot step	4	4	n/a	1	n/a
150.193758499983	0	4	foot step	3	3	n/a	1	n/a
150.843758499948	0	4	foot step	4	4	n/a	1	n/a
151.533758499951	0	4	foot step	1	1	n/a	1	n/a
152.183758499974	0	4	foot step	4	4	n/a	1	n/a
152.853758499958	0	4	foot step	1	1	n/a	1	n/a
153.493758499972	0	4	foot step	2	2	n/a	1	n/a
154.133758499986	0	4	foot step	4	4	n/a	1	n/a
154.773758499941	0	4	foot step	3	3	n/a	1	n/a
155.473758499953	0	4	foot step	2	2	n/a	1	n/a
156.163758499955	0	4	foot step	1	1	n/a	1	n/a
156.823758499988	0	4	foot step	2	2	n/a	1	n/a
158.059999999998	5	4	stimulus	n/a	n/a	white X	1	n/a
171.080000000016	21	5	stimulus	n/a	n/a	white X	1	n/a
192.083136499976	9.51764320000075	5	stimulus	n/a	n/a	red X	1	n/a
193.153136499983	0	5	foot step	4	4	n/a	1	n/a
193.793136499997	0	5	foot step	3	3	n/a	1	n/a
194.453136499971	0	5	foot step	4	4	n/a	1	n/a
195.113136500004	0	5	foot step	1	1	n/a	1	n/a
195.733136499999	0	5	foot step	4	4	n/a	1	n/a
196.393136499973	0	5	foot step	1	1	n/a	1	n/a
197.063136499957	0	5	foot step	2	2	n/a	1	n/a
197.733136499999	0	5	foot step	4	4	n/a	1	n/a
198.373136499955	0	5	foot step	3	3	n/a	1	n/a
199.043136499997	0	5	foot step	2	2	n/a	1	n/a
199.693136499962	0	5	foot step	1	1	n/a	1	n/a
200.343136499985	0	5	foot step	2	2	n/a	1	n/a
201.599999999977	5	5	stimulus	n/a	n/a	white X	1	n/a
207.239999999991	21.02	6	stimulus	n/a	n/a	white X	1	n/a
228.247955399973	9.5072005999973	6	stimulus	n/a	n/a	red X	1	n/a
229.277955400001	0	6	foot step	4	4	n/a	1	n/a
229.977955399954	0	6	foot step	3	3	n/a	1	n/a
230.607955399959	0	6	foot step	4	4	n/a	1	n/a
231.277955400001	0	6	foot step	1	1	n/a	1	n/a
231.897955399996	0	6	foot step	4	4	n/a	1	n/a
232.557955399971	0	6	foot step	1	1	n/a	1	n/a
233.227955399954	0	6	foot step	2	2	n/a	1	n/a
233.84795539995	0	6	foot step	4	4	n/a	1	n/a
234.497955399973	0	6	foot step	3	3	n/a	1	n/a
235.167955399957	0	6	foot step	2	2	n/a	1	n/a
235.84795539995	0	6	foot step	1	1	n/a	1	n/a
236.447955399984	0	6	foot step	2	2	n/a	1	n/a
237.760000000009	5	6	stimulus	n/a	n/a	white X	1	n/a
243.719999999972	25.02	7	stimulus	n/a	n/a	white X	1	n/a
268.726297799964	9.50751670001773	7	stimulus	n/a	n/a	red X	1	n/a
269.846297799959	0	7	foot step	4	4	n/a	1	n/a
270.57629779994	0	7	foot step	3	3	n/a	1	n/a
271.236297799973	0	7	foot step	4	4	n/a	1	n/a
271.886297799938	0	7	foot step	1	1	n/a	1	n/a
272.526297799952	0	7	foot step	4	4	n/a	1	n/a
273.166297799966	0	7	foot step	1	1	n/a	1	n/a
273.83629779995	0	7	foot step	2	2	n/a	1	n/a
274.466297799954	0	7	foot step	4	4	n/a	1	n/a
275.126297799987	0	7	foot step	3	3	n/a	1	n/a
275.80629779998	0	7	foot step	2	2	n/a	1	n/a
276.416297799966	0	7	foot step	1	1	n/a	1	n/a
277.04629779997	0	7	foot step	2	2	n/a	1	n/a
278.239999999991	5	7	stimulus	n/a	n/a	white X	1	n/a
284.460000000021	23.02	8	stimulus	n/a	n/a	white X	1	n/a
307.472187499981	9.50703280000016	8	stimulus	n/a	n/a	red X	1	n/a
308.782187499979	0	8	foot step	4	4	n/a	1	n/a
309.472187499981	0	8	foot step	3	3	n/a	1	n/a
310.162187499984	0	8	foot step	4	4	n/a	1	n/a
310.832187499967	0	8	foot step	1	1	n/a	1	n/a
311.452187499963	0	8	foot step	4	4	n/a	1	n/a
312.102187499986	0	8	foot step	1	1	n/a	1	n/a
312.76218749996	0	8	foot step	2	2	n/a	1	n/a
313.382187499956	0	8	foot step	4	4	n/a	1	n/a
314.002187500009	0	8	foot step	3	3	n/a	1	n/a
314.722187499981	0	8	foot step	2	2	n/a	1	n/a
315.382187499956	0	8	foot step	1	1	n/a	1	n/a
316.02218749997	0	8	foot step	2	2	n/a	1	n/a
316.979999999981	5	8	stimulus	n/a	n/a	white X	1	n/a
322.659999999974	25.02	9	stimulus	n/a	n/a	white X	1	n/a
347.668777999992	9.50742589996662	9	stimulus	n/a	n/a	red X	1	n/a
348.538777999987	0	9	foot step	4	4	n/a	1	n/a
349.21877799998	0	9	foot step	3	3	n/a	1	n/a
349.908777999983	0	9	foot step	4	4	n/a	1	n/a
350.618778000004	0	9	foot step	1	1	n/a	1	n/a
351.248778000008	0	9	foot step	4	4	n/a	1	n/a
351.918777999992	0	9	foot step	1	1	n/a	1	n/a
352.548777999997	0	9	foot step	2	2	n/a	1	n/a
353.19877800002	0	9	foot step	4	4	n/a	1	n/a
353.838777999976	0	9	foot step	3	3	n/a	1	n/a
354.518777999969	0	9	foot step	2	2	n/a	1	n/a
355.158777999983	0	9	foot step	1	1	n/a	1	n/a
355.798777999997	0	9	foot step	2	2	n/a	1	n/a
357.179999999993	5	9	stimulus	n/a	n/a	white X	1	n/a
363.440000000002	24.02	10	stimulus	n/a	n/a	white X	1	n/a
387.458634599985	9.51513030001661	10	stimulus	n/a	n/a	red X	1	n/a
388.488634600013	0	10	foot step	4	4	n/a	1	n/a
389.128634599969	0	10	foot step	3	3	n/a	1	n/a
389.808634599962	0	10	foot step	4	4	n/a	1	n/a
390.448634599976	0	10	foot step	1	1	n/a	1	n/a
391.07863459998	0	10	foot step	4	4	n/a	1	n/a
391.748634599964	0	10	foot step	1	1	n/a	1	n/a
392.448634599976	0	10	foot step	2	2	n/a	1	n/a
393.118634599959	0	10	foot step	4	4	n/a	1	n/a
393.778634599992	0	10	foot step	3	3	n/a	1	n/a
394.468634599994	0	10	foot step	2	2	n/a	1	n/a
395.098634599999	0	10	foot step	1	1	n/a	1	n/a
395.728634600004	0	10	foot step	2	2	n/a	1	n/a
396.979999999981	5	10	stimulus	n/a	n/a	white X	1	n/a
405.419999999984	23	11	stimulus	n/a	n/a	white X	1	n/a
428.420676499954	9.5148667000467	11	stimulus	n/a	n/a	red X	1	n/a
429.670676499954	0	11	foot step	4	4	n/a	1	n/a
430.360676499957	0	11	foot step	3	3	n/a	1	n/a
431.060676499968	0	11	foot step	4	4	n/a	1	n/a
431.740676499961	0	11	foot step	1	1	n/a	1	n/a
432.420676499954	0	11	foot step	4	4	n/a	1	n/a
433.140676499926	0	11	foot step	1	1	n/a	1	n/a
433.770676499931	0	11	foot step	2	2	n/a	1	n/a
434.420676499954	0	11	foot step	4	4	n/a	1	n/a
435.070676499978	0	11	foot step	3	3	n/a	1	n/a
435.79067649995	0	11	foot step	2	2	n/a	1	n/a
436.440676499973	0	11	foot step	1	1	n/a	1	n/a
437.080676499929	0	11	foot step	2	2	n/a	1	n/a
437.919999999984	5	11	stimulus	n/a	n/a	white X	1	n/a
