onset	duration	trial_type	Object_Cond	Validity_Cond	Obj_Accuracy	Obj_Acc_RT	Subseq_Recog	Subseq_Recog_RT	Subseq_Source_Mem_Acc	Subseq_Source_Mem_Acc_RT
4.0003	1.0	Valid Other Obj Cue: valid cue where following stimulus was an untested or no response object	OBJ	V	1	1.1034	UT	UT	UT	UT
10.0003	0.5	Valid Other Obj: stimulus that was an untested or no response object and that followed a valid cue	OBJ	V	1	1.1034	UT	UT	UT	UT
12.0608	1.0	Valid Miss Cue: valid cue where following object was a subsequent miss	OBJ	V	1	0.9204100000000001	HC-MISS	 2.3445	UT	UT
16.0608	0.5	Valid Miss Obj: object that was a subsequent miss and that followed a valid cue	OBJ	V	1	0.9204100000000001	HC-MISS	 2.3445	UT	UT
18.0009	1.0	Valid Other Greeble Cue: valid cue where following stimulus was an untested or no response greeble	GRE	V	1	0.8920600000000001	UT	UT	UT	UT
24.0009	0.5	Valid Other Greeble: stimulus that was an untested or no response greeble and that followed a valid cue	GRE	V	1	0.8920600000000001	UT	UT	UT	UT
28.0014	1.0	Invalid Miss Cue: invalid cue where following object was a subsequent miss	OBJ	NV	1	1.0573	HC-MISS	 1.1158	UT	UT
32.0014	0.5	Invalid Miss Obj: object that was a subsequent miss and that followed an invalid cue	OBJ	NV	1	1.0573	HC-MISS	 1.1158	UT	UT
34.0517	1.0	Valid Other Greeble Cue: valid cue where following stimulus was an untested or no response greeble	GRE	V	1	1.1278	UT	UT	UT	UT
36.0517	0.5	Valid Other Greeble: stimulus that was an untested or no response greeble and that followed a valid cue	GRE	V	1	1.1278	UT	UT	UT	UT
38.0507	1.0	Valid LC-Hit Cue: valid cue where following object was a subsequent low confidence hit	OBJ	V	1	1.3025	LC-HIT	 1.9553	0	1.4789
40.0507	0.5	Valid LC-Hit Obj: object that was a subsequent low confidence hit and that followed a valid cue	OBJ	V	1	1.3025	LC-HIT	 1.9553	0	1.4789
42.0533	1.0	Valid Miss Cue: valid cue where following object was a subsequent miss	OBJ	V	1	1.0526	LC-MISS	 1.1356	UT	UT
44.0533	0.5	Valid Miss Obj: object that was a subsequent miss and that followed a valid cue	OBJ	V	1	1.0526	LC-MISS	 1.1356	UT	UT
46.0525	1.0	Valid Miss Cue: valid cue where following object was a subsequent miss	OBJ	V	1	1.1429	LC-MISS	 2.7931	UT	UT
48.0525	0.5	Valid Miss Obj: object that was a subsequent miss and that followed a valid cue	OBJ	V	1	1.1429	LC-MISS	 2.7931	UT	UT
50.0518	1.0	Valid Other Greeble Cue: valid cue where following stimulus was an untested or no response greeble	GRE	V	1	1.7027	UT	UT	UT	UT
56.0518	0.5	Valid Other Greeble: stimulus that was an untested or no response greeble and that followed a valid cue	GRE	V	1	1.7027	UT	UT	UT	UT
58.0517	1.0	Invalid Other Greeble Cue: invalid cue where following stimulus was an untested or no response greeble	GRE	NV	1	1.3902	UT	UT	UT	UT
60.0517	0.5	Invalid Other Greeble: stimulus that was an untested or no response greeble and that followed a invalid cue	GRE	NV	1	1.3902	UT	UT	UT	UT
62.0514	1.0	Valid Miss Cue: valid cue where following object was a subsequent miss	OBJ	V	1	1.2927	HC-MISS	 1.8328	UT	UT
64.0514	0.5	Valid Miss Obj: object that was a subsequent miss and that followed a valid cue	OBJ	V	1	1.2927	HC-MISS	 1.8328	UT	UT
66.0512	1.0	Valid Other Greeble Cue: valid cue where following stimulus was an untested or no response greeble	GRE	V	1	0.84844	UT	UT	UT	UT
72.0512	0.5	Valid Other Greeble: stimulus that was an untested or no response greeble and that followed a valid cue	GRE	V	1	0.84844	UT	UT	UT	UT
76.0028	1.0	Valid Other Obj Cue: valid cue where following stimulus was an untested or no response object	OBJ	V	1	1.1904	NR	NR	UT	UT
80.0028	0.5	Valid Other Obj: stimulus that was an untested or no response object and that followed a valid cue	OBJ	V	1	1.1904	NR	NR	UT	UT
86.0017	1.0	Valid LC-Hit Cue: valid cue where following object was a subsequent low confidence hit	OBJ	V	1	1.0353	LC-HIT	 3.0279	0	2.0141
88.0017	0.5	Valid LC-Hit Obj: object that was a subsequent low confidence hit and that followed a valid cue	OBJ	V	1	1.0353	LC-HIT	 3.0279	0	2.0141
90.0529	1.0	Valid Miss Cue: valid cue where following object was a subsequent miss	OBJ	V	1	0.9928899999999999	LC-MISS	 2.3063	UT	UT
94.0529	0.5	Valid Miss Obj: object that was a subsequent miss and that followed a valid cue	OBJ	V	1	0.9928899999999999	LC-MISS	 2.3063	UT	UT
96.0513	1.0	Valid HC-Hit Cue: valid cue where following object was a subsequent high confidence hit	OBJ	V	1	1.1093	HC-HIT	 1.9652	1	2.4001
100.0513	0.5	Valid HC-Hit Obj: object that was a subsequent high confidence hit and that followed a valid cue	OBJ	V	1	1.1093	HC-HIT	 1.9652	1	2.4001
102.0513	1.0	Valid Other Greeble Cue: valid cue where following stimulus was an untested or no response greeble	GRE	V	1	1.0739	UT	UT	UT	UT
108.0513	0.5	Valid Other Greeble: stimulus that was an untested or no response greeble and that followed a valid cue	GRE	V	1	1.0739	UT	UT	UT	UT
110.0526	1.0	Valid Miss Cue: valid cue where following object was a subsequent miss	OBJ	V	1	0.96767	LC-MISS	 2.1584	UT	UT
114.0526	0.5	Valid Miss Obj: object that was a subsequent miss and that followed a valid cue	OBJ	V	1	0.96767	LC-MISS	 2.1584	UT	UT
118.0558	1.0	Invalid Other Greeble Cue: invalid cue where following stimulus was an untested or no response greeble	GRE	NV	1	1.422	UT	UT	UT	UT
120.0558	0.5	Invalid Other Greeble: stimulus that was an untested or no response greeble and that followed a invalid cue	GRE	NV	1	1.422	UT	UT	UT	UT
122.0512	1.0	Valid Miss Cue: valid cue where following object was a subsequent miss	OBJ	V	1	1.0102	HC-MISS	 3.9186	UT	UT
126.0512	0.5	Valid Miss Obj: object that was a subsequent miss and that followed a valid cue	OBJ	V	1	1.0102	HC-MISS	 3.9186	UT	UT
130.0533	1.0	Valid Miss Cue: valid cue where following object was a subsequent miss	OBJ	V	1	1.0328	LC-MISS	 2.4795	UT	UT
132.0533	0.5	Valid Miss Obj: object that was a subsequent miss and that followed a valid cue	OBJ	V	1	1.0328	LC-MISS	 2.4795	UT	UT
136.0518	1.0	Valid HC-Hit Cue: valid cue where following object was a subsequent high confidence hit	OBJ	V	1	1.0592	HC-HIT	 1.7972	0	0.50956
142.0518	0.5	Valid HC-Hit Obj: object that was a subsequent high confidence hit and that followed a valid cue	OBJ	V	1	1.0592	HC-HIT	 1.7972	0	0.50956
144.0521	1.0	Valid Other Greeble Cue: valid cue where following stimulus was an untested or no response greeble	GRE	V	1	1.0417	UT	UT	UT	UT
148.0521	0.5	Valid Other Greeble: stimulus that was an untested or no response greeble and that followed a valid cue	GRE	V	1	1.0417	UT	UT	UT	UT
150.0523	1.0	Valid Miss Cue: valid cue where following object was a subsequent miss	OBJ	V	1	1.1672	HC-MISS	 1.8184	UT	UT
154.0523	0.5	Valid Miss Obj: object that was a subsequent miss and that followed a valid cue	OBJ	V	1	1.1672	HC-MISS	 1.8184	UT	UT
156.0511	1.0	Invalid Miss Cue: invalid cue where following object was a subsequent miss	OBJ	NV	1	1.3009	LC-MISS	 1.3179	UT	UT
160.0511	0.5	Invalid Miss Obj: object that was a subsequent miss and that followed an invalid cue	OBJ	NV	1	1.3009	LC-MISS	 1.3179	UT	UT
162.0521	1.0	Valid Miss Cue: valid cue where following object was a subsequent miss	OBJ	V	1	1.5294	HC-MISS	 1.2381	UT	UT
168.0521	0.5	Valid Miss Obj: object that was a subsequent miss and that followed a valid cue	OBJ	V	1	1.5294	HC-MISS	 1.2381	UT	UT
172.0547	1.0	Valid Miss Cue: valid cue where following object was a subsequent miss	OBJ	V	1	1.0053	LC-MISS	 1.2067	UT	UT
178.0547	0.5	Valid Miss Obj: object that was a subsequent miss and that followed a valid cue	OBJ	V	1	1.0053	LC-MISS	 1.2067	UT	UT
180.0012	1.0	Valid Other Greeble Cue: valid cue where following stimulus was an untested or no response greeble	GRE	V	1	1.0284	UT	UT	UT	UT
182.0012	0.5	Valid Other Greeble: stimulus that was an untested or no response greeble and that followed a valid cue	GRE	V	1	1.0284	UT	UT	UT	UT
184.0531	1.0	Valid Other Greeble Cue: valid cue where following stimulus was an untested or no response greeble	GRE	V	1	0.92463	UT	UT	UT	UT
186.0531	0.5	Valid Other Greeble: stimulus that was an untested or no response greeble and that followed a valid cue	GRE	V	1	0.92463	UT	UT	UT	UT
188.0533	1.0	Invalid Miss Cue: invalid cue where following object was a subsequent miss	OBJ	NV	1	1.376	HC-MISS	 1.3541	UT	UT
192.0533	0.5	Invalid Miss Obj: object that was a subsequent miss and that followed an invalid cue	OBJ	NV	1	1.376	HC-MISS	 1.3541	UT	UT
196.0542	1.0	Valid Other Greeble Cue: valid cue where following stimulus was an untested or no response greeble	GRE	V	1	0.9074	UT	UT	UT	UT
202.0542	0.5	Valid Other Greeble: stimulus that was an untested or no response greeble and that followed a valid cue	GRE	V	1	0.9074	UT	UT	UT	UT
204.0011	1.0	Valid Miss Cue: valid cue where following object was a subsequent miss	OBJ	V	1	1.4339	HC-MISS	 1.9705	UT	UT
206.0011	0.5	Valid Miss Obj: object that was a subsequent miss and that followed a valid cue	OBJ	V	1	1.4339	HC-MISS	 1.9705	UT	UT
208.0542	1.0	Invalid Miss Cue: invalid cue where following object was a subsequent miss	OBJ	NV	1	1.7127	LC-MISS	 2.0464	UT	UT
210.0542	0.5	Invalid Miss Obj: object that was a subsequent miss and that followed an invalid cue	OBJ	NV	1	1.7127	LC-MISS	 2.0464	UT	UT
212.0543	1.0	Valid Miss Cue: valid cue where following object was a subsequent miss	OBJ	V	1	1.0449	LC-MISS	 2.4414	UT	UT
218.0543	0.5	Valid Miss Obj: object that was a subsequent miss and that followed a valid cue	OBJ	V	1	1.0449	LC-MISS	 2.4414	UT	UT
220.0522	1.0	Valid Other Greeble Cue: valid cue where following stimulus was an untested or no response greeble	GRE	V	1	1.1791	UT	UT	UT	UT
224.0522	0.5	Valid Other Greeble: stimulus that was an untested or no response greeble and that followed a valid cue	GRE	V	1	1.1791	UT	UT	UT	UT
226.0021	1.0	Valid Miss Cue: valid cue where following object was a subsequent miss	OBJ	V	1	1.3602	LC-MISS	 3.3065	UT	UT
230.0021	0.5	Valid Miss Obj: object that was a subsequent miss and that followed a valid cue	OBJ	V	1	1.3602	LC-MISS	 3.3065	UT	UT
232.0523	1.0	Valid Other Obj Cue: valid cue where following stimulus was an untested or no response object	OBJ	V	1	1.1038	UT	UT	UT	UT
234.0523	0.5	Valid Other Obj: stimulus that was an untested or no response object and that followed a valid cue	OBJ	V	1	1.1038	UT	UT	UT	UT
236.0012	1.0	Invalid Miss Cue: invalid cue where following object was a subsequent miss	OBJ	NV	1	1.4867	HC-MISS	 1.3995	UT	UT
242.0012	0.5	Invalid Miss Obj: object that was a subsequent miss and that followed an invalid cue	OBJ	NV	1	1.4867	HC-MISS	 1.3995	UT	UT
246.0037	1.0	Valid Miss Cue: valid cue where following object was a subsequent miss	OBJ	V	1	1.104	HC-MISS	 1.6572	UT	UT
252.0037	0.5	Valid Miss Obj: object that was a subsequent miss and that followed a valid cue	OBJ	V	1	1.104	HC-MISS	 1.6572	UT	UT
254.0542	1.0	Valid Other Obj Cue: valid cue where following stimulus was an untested or no response object	OBJ	V	1	1.3108	UT	UT	UT	UT
256.0542	0.5	Valid Other Obj: stimulus that was an untested or no response object and that followed a valid cue	OBJ	V	1	1.3108	UT	UT	UT	UT
258.053	1.0	Valid Other Greeble Cue: valid cue where following stimulus was an untested or no response greeble	GRE	V	1	0.9305700000000001	UT	UT	UT	UT
264.053	0.5	Valid Other Greeble: stimulus that was an untested or no response greeble and that followed a valid cue	GRE	V	1	0.9305700000000001	UT	UT	UT	UT
266.0522	1.0	Valid Other Greeble Cue: valid cue where following stimulus was an untested or no response greeble	GRE	V	1	0.94995	UT	UT	UT	UT
270.0522	0.5	Valid Other Greeble: stimulus that was an untested or no response greeble and that followed a valid cue	GRE	V	1	0.94995	UT	UT	UT	UT
272.0016	1.0	Valid Other Obj Cue: valid cue where following stimulus was an untested or no response object	OBJ	V	1	1.4773	UT	UT	UT	UT
276.0016	0.5	Valid Other Obj: stimulus that was an untested or no response object and that followed a valid cue	OBJ	V	1	1.4773	UT	UT	UT	UT
278.0534	n/a	n/a	OBJ	NV	1	1.0196	NR	NR	UT	UT
280.0534	n/a	n/a	OBJ	NV	1	1.0196	NR	NR	UT	UT
286.0542	1.0	Valid Miss Cue: valid cue where following object was a subsequent miss	OBJ	V	1	1.0394	LC-MISS	 2.6944	UT	UT
290.0542	0.5	Valid Miss Obj: object that was a subsequent miss and that followed a valid cue	OBJ	V	1	1.0394	LC-MISS	 2.6944	UT	UT
292.001	1.0	Valid Other Obj Cue: valid cue where following stimulus was an untested or no response object	OBJ	V	1	1.4072	UT	UT	UT	UT
296.001	0.5	Valid Other Obj: stimulus that was an untested or no response object and that followed a valid cue	OBJ	V	1	1.4072	UT	UT	UT	UT
298.0538	1.0	Valid Miss Cue: valid cue where following object was a subsequent miss	OBJ	V	1	1.8288	LC-MISS	 1.5071	UT	UT
300.0538	0.5	Valid Miss Obj: object that was a subsequent miss and that followed a valid cue	OBJ	V	1	1.8288	LC-MISS	 1.5071	UT	UT
304.0521	1.0	Invalid Miss Cue: invalid cue where following object was a subsequent miss	OBJ	NV	1	1.7766	HC-MISS	 1.1729	UT	UT
310.0521	0.5	Invalid Miss Obj: object that was a subsequent miss and that followed an invalid cue	OBJ	NV	1	1.7766	HC-MISS	 1.1729	UT	UT
312.0027	1.0	Valid Other Obj Cue: valid cue where following stimulus was an untested or no response object	OBJ	V	1	1.4549	NR	NR	UT	UT
314.0027	0.5	Valid Other Obj: stimulus that was an untested or no response object and that followed a valid cue	OBJ	V	1	1.4549	NR	NR	UT	UT
316.0528	1.0	Valid Miss Cue: valid cue where following object was a subsequent miss	OBJ	V	1	1.7395	LC-MISS	 2.5815	UT	UT
322.0528	0.5	Valid Miss Obj: object that was a subsequent miss and that followed a valid cue	OBJ	V	1	1.7395	LC-MISS	 2.5815	UT	UT
324.0013	1.0	Valid Other Greeble Cue: valid cue where following stimulus was an untested or no response greeble	GRE	V	1	1.1265	UT	UT	UT	UT
330.0013	0.5	Valid Other Greeble: stimulus that was an untested or no response greeble and that followed a valid cue	GRE	V	1	1.1265	UT	UT	UT	UT
332.056	1.0	Valid Other Greeble Cue: valid cue where following stimulus was an untested or no response greeble	GRE	V	1	1.3019999999999998	UT	UT	UT	UT
338.056	0.5	Valid Other Greeble: stimulus that was an untested or no response greeble and that followed a valid cue	GRE	V	1	1.3019999999999998	UT	UT	UT	UT
340.0587	1.0	Valid Miss Cue: valid cue where following object was a subsequent miss	OBJ	V	1	1.608	LC-MISS	 2.8797	UT	UT
346.0587	0.5	Valid Miss Obj: object that was a subsequent miss and that followed a valid cue	OBJ	V	1	1.608	LC-MISS	 2.8797	UT	UT
348.00300000000004	1.0	Invalid Miss Cue: invalid cue where following object was a subsequent miss	OBJ	NV	1	1.8237	LC-MISS	 2.9425	UT	UT
350.00300000000004	0.5	Invalid Miss Obj: object that was a subsequent miss and that followed an invalid cue	OBJ	NV	1	1.8237	LC-MISS	 2.9425	UT	UT
354.05300000000005	1.0	Valid Miss Cue: valid cue where following object was a subsequent miss	OBJ	V	1	1.1091	HC-MISS	 1.7985	UT	UT
358.05300000000005	0.5	Valid Miss Obj: object that was a subsequent miss and that followed a valid cue	OBJ	V	1	1.1091	HC-MISS	 1.7985	UT	UT
360.0533	1.0	Valid Miss Cue: valid cue where following object was a subsequent miss	OBJ	V	1	0.9298	LC-MISS	 3.3786	UT	UT
364.0533	0.5	Valid Miss Obj: object that was a subsequent miss and that followed a valid cue	OBJ	V	1	0.9298	LC-MISS	 3.3786	UT	UT
