onset	duration	trial_number	event_type	executed_movement	correct_movement	shown_stimulus	reported_gs	correct_gs	included_trial	reason_for_exclusion
9.98000000001048	25.02	1	stimulus	n/a	n/a	white X	n/a	n/a	0	test trial
35	8.81027539999923	1	stimulus	n/a	n/a	CCGOOGQO	2	2	0	test trial
35.7031469000212	0	1	finger press	4	4	n/a	n/a	n/a	0	test trial
36.3112370000163	0	1	finger press	3	3	n/a	n/a	n/a	0	test trial
36.9431557000207	0	1	finger press	4	4	n/a	n/a	n/a	0	test trial
37.5431603000034	0	1	finger press	1	1	n/a	n/a	n/a	0	test trial
38.1831149000209	0	1	finger press	4	4	n/a	n/a	n/a	0	test trial
38.846814700024	0	1	finger press	1	1	n/a	n/a	n/a	0	test trial
39.4311753000075	0	1	finger press	2	2	n/a	n/a	n/a	0	test trial
40.2151592000155	0	1	finger press	4	4	n/a	n/a	n/a	0	test trial
40.9349215000111	0	1	finger press	3	3	n/a	n/a	n/a	0	test trial
41.5990981000068	0	1	finger press	2	2	n/a	n/a	n/a	0	test trial
42.1988598000025	0	1	finger press	1	1	n/a	n/a	n/a	0	test trial
42.8710794000071	0	1	finger press	4	2	n/a	n/a	n/a	0	test trial
43.820000000007	5	1	stimulus	n/a	n/a	white X	n/a	n/a	0	test trial
55.5400000000081	24.02	2	stimulus	n/a	n/a	white X	n/a	n/a	1	n/a
79.5657936000207	9.50865559998783	2	stimulus	n/a	n/a	CGGOGQOQ	2	3	1	n/a
80.0069990000047	0	2	finger press	4	4	n/a	n/a	n/a	1	n/a
80.6550972000114	0	2	finger press	3	3	n/a	n/a	n/a	1	n/a
81.2394745000056	0	2	finger press	4	4	n/a	n/a	n/a	1	n/a
82.095787600003	0	2	finger press	1	1	n/a	n/a	n/a	1	n/a
82.8549664000166	0	2	finger press	4	4	n/a	n/a	n/a	1	n/a
83.4715242000239	0	2	finger press	1	1	n/a	n/a	n/a	1	n/a
84.1431237000215	0	2	finger press	2	2	n/a	n/a	n/a	1	n/a
84.9831623000209	0	2	finger press	4	4	n/a	n/a	n/a	1	n/a
85.5751369000063	0	2	finger press	3	3	n/a	n/a	n/a	1	n/a
86.2630852000148	0	2	finger press	2	2	n/a	n/a	n/a	1	n/a
87.0231195000233	0	2	finger press	1	1	n/a	n/a	n/a	1	n/a
87.5751370000071	0	2	finger press	2	2	n/a	n/a	n/a	1	n/a
89.0799999999872	5	2	stimulus	n/a	n/a	white X	n/a	n/a	1	n/a
100.079999999987	22.04	3	stimulus	n/a	n/a	white X	n/a	n/a	1	n/a
122.110310100019	9.80468729999848	3	stimulus	n/a	n/a	COQGQOCO	1	1	1	n/a
122.631047600007	0	3	finger press	4	4	n/a	n/a	n/a	1	n/a
123.279188000015	0	3	finger press	3	3	n/a	n/a	n/a	1	n/a
123.903188800003	0	3	finger press	4	4	n/a	n/a	n/a	1	n/a
124.550992300006	0	3	finger press	1	1	n/a	n/a	n/a	1	n/a
125.295046200015	0	3	finger press	4	4	n/a	n/a	n/a	1	n/a
125.975091800006	0	3	finger press	1	1	n/a	n/a	n/a	1	n/a
126.639204100007	0	3	finger press	2	2	n/a	n/a	n/a	1	n/a
127.303240400011	0	3	finger press	4	4	n/a	n/a	n/a	1	n/a
128.543065400008	0	3	finger press	3	3	n/a	n/a	n/a	1	n/a
129.183360700001	0	3	finger press	2	2	n/a	n/a	n/a	1	n/a
130.015148300008	0	3	finger press	1	1	n/a	n/a	n/a	1	n/a
130.742813900026	0	3	finger press	2	2	n/a	n/a	n/a	1	n/a
131.920000000013	5	3	stimulus	n/a	n/a	white X	n/a	n/a	1	n/a
145.959999999992	21.04	4	stimulus	n/a	n/a	white X	n/a	n/a	0	erroneous trial
166.990922800003	9.15358250000281	4	stimulus	n/a	n/a	GCCOGCGO	2	3	0	erroneous trial
167.535168000002	0	4	finger press	4	4	n/a	n/a	n/a	0	erroneous trial
168.135144500004	0	4	finger press	3	3	n/a	n/a	n/a	0	erroneous trial
168.758890500001	0	4	finger press	4	4	n/a	n/a	n/a	0	erroneous trial
169.455058799998	0	4	finger press	1	1	n/a	n/a	n/a	0	erroneous trial
170.199003200018	0	4	finger press	2	4	n/a	n/a	n/a	0	erroneous trial
171.439075500006	0	4	finger press	4	1	n/a	n/a	n/a	0	erroneous trial
172.694977200008	0	4	finger press	1	2	n/a	n/a	n/a	0	erroneous trial
173.591139200027	0	4	finger press	3	4	n/a	n/a	n/a	0	erroneous trial
174.3114451	0	4	finger press	2	3	n/a	n/a	n/a	0	erroneous trial
174.911010300013	0	4	finger press	1	2	n/a	n/a	n/a	0	erroneous trial
176.140000000014	5	4	stimulus	n/a	n/a	white X	n/a	n/a	0	erroneous trial
187.239999999991	25.04	5	stimulus	n/a	n/a	white X	n/a	n/a	1	n/a
212.270813500014	9.10693310000352	5	stimulus	n/a	n/a	OOOGOOOO	1	1	1	n/a
212.847210100008	0	5	finger press	4	4	n/a	n/a	n/a	1	n/a
213.503035900008	0	5	finger press	3	3	n/a	n/a	n/a	1	n/a
214.199073399999	0	5	finger press	4	4	n/a	n/a	n/a	1	n/a
215.687107200007	0	5	finger press	1	1	n/a	n/a	n/a	1	n/a
216.375007100025	0	5	finger press	4	4	n/a	n/a	n/a	1	n/a
217.199052800017	0	5	finger press	1	1	n/a	n/a	n/a	1	n/a
217.823008200008	0	5	finger press	2	2	n/a	n/a	n/a	1	n/a
218.54305540002	0	5	finger press	4	4	n/a	n/a	n/a	1	n/a
219.1750398	0	5	finger press	3	3	n/a	n/a	n/a	1	n/a
219.870951800025	0	5	finger press	2	2	n/a	n/a	n/a	1	n/a
220.615038800024	0	5	finger press	1	1	n/a	n/a	n/a	1	n/a
221.380000000005	5	5	stimulus	n/a	n/a	white X	n/a	n/a	1	n/a
232.440000000002	23.04	6	stimulus	n/a	n/a	white X	n/a	n/a	1	n/a
255.468669100024	9.84341739999945	6	stimulus	n/a	n/a	QGOGQQGO	3	3	1	n/a
256.031038400019	0	6	finger press	4	4	n/a	n/a	n/a	1	n/a
256.663590100012	0	6	finger press	3	3	n/a	n/a	n/a	1	n/a
257.287008100015	0	6	finger press	4	4	n/a	n/a	n/a	1	n/a
258.015113400004	0	6	finger press	1	1	n/a	n/a	n/a	1	n/a
258.647017100011	0	6	finger press	4	4	n/a	n/a	n/a	1	n/a
259.343140800018	0	6	finger press	1	1	n/a	n/a	n/a	1	n/a
259.958772300015	0	6	finger press	2	2	n/a	n/a	n/a	1	n/a
260.679103800008	0	6	finger press	4	4	n/a	n/a	n/a	1	n/a
261.286655500007	0	6	finger press	3	3	n/a	n/a	n/a	1	n/a
262.007138500019	0	6	finger press	2	2	n/a	n/a	n/a	1	n/a
262.686898200016	0	6	finger press	1	1	n/a	n/a	n/a	1	n/a
263.870764700026	0	6	finger press	2	2	n/a	n/a	n/a	1	n/a
265.299999999988	5	6	stimulus	n/a	n/a	white X	n/a	n/a	1	n/a
298.440000000002	21.02	7	stimulus	n/a	n/a	white X	n/a	n/a	1	n/a
319.466385500011	9.22051149999606	7	stimulus	n/a	n/a	OOOOOOQC	0	0	1	n/a
319.999046800018	0	7	finger press	4	4	n/a	n/a	n/a	1	n/a
320.671069700009	0	7	finger press	3	3	n/a	n/a	n/a	1	n/a
321.278983600001	0	7	finger press	4	4	n/a	n/a	n/a	1	n/a
321.959120600019	0	7	finger press	1	1	n/a	n/a	n/a	1	n/a
322.750699299999	0	7	finger press	4	4	n/a	n/a	n/a	1	n/a
323.447060800012	0	7	finger press	1	1	n/a	n/a	n/a	1	n/a
324.111051500018	0	7	finger press	2	2	n/a	n/a	n/a	1	n/a
324.702890300017	0	7	finger press	4	4	n/a	n/a	n/a	1	n/a
325.35881830001	0	7	finger press	3	3	n/a	n/a	n/a	1	n/a
325.935081700009	0	7	finger press	2	2	n/a	n/a	n/a	1	n/a
326.622971400007	0	7	finger press	1	1	n/a	n/a	n/a	1	n/a
328.679999999993	5	7	stimulus	n/a	n/a	white X	n/a	n/a	1	n/a
340.820000000007	25.02	8	stimulus	n/a	n/a	white X	n/a	n/a	1	n/a
365.849205700011	9.54270290001296	8	stimulus	n/a	n/a	QQCCOCOO	0	0	1	n/a
366.494943000027	0	8	finger press	4	4	n/a	n/a	n/a	1	n/a
367.103466600005	0	8	finger press	3	3	n/a	n/a	n/a	1	n/a
367.758907500014	0	8	finger press	4	4	n/a	n/a	n/a	1	n/a
368.462657000026	0	8	finger press	1	1	n/a	n/a	n/a	1	n/a
369.158836800023	0	8	finger press	4	4	n/a	n/a	n/a	1	n/a
369.798849500017	0	8	finger press	1	1	n/a	n/a	n/a	1	n/a
370.414724400005	0	8	finger press	2	2	n/a	n/a	n/a	1	n/a
371.030687600025	0	8	finger press	4	4	n/a	n/a	n/a	1	n/a
371.758856200002	0	8	finger press	3	3	n/a	n/a	n/a	1	n/a
372.343011500023	0	8	finger press	2	2	n/a	n/a	n/a	1	n/a
373.006914900005	0	8	finger press	1	1	n/a	n/a	n/a	1	n/a
373.6468972	0	8	finger press	2	2	n/a	n/a	n/a	1	n/a
375.380000000005	5	8	stimulus	n/a	n/a	white X	n/a	n/a	1	n/a
386.839999999997	22.02	9	stimulus	n/a	n/a	white X	n/a	n/a	1	n/a
408.870902900002	8.72800070000812	9	stimulus	n/a	n/a	GCQCGOGO	3	3	1	n/a
409.758874100022	0	9	finger press	4	4	n/a	n/a	n/a	1	n/a
410.390725300007	0	9	finger press	3	3	n/a	n/a	n/a	1	n/a
411.118868200021	0	9	finger press	4	4	n/a	n/a	n/a	1	n/a
411.822903000022	0	9	finger press	1	1	n/a	n/a	n/a	1	n/a
412.478921000002	0	9	finger press	4	4	n/a	n/a	n/a	1	n/a
413.214929500013	0	9	finger press	1	1	n/a	n/a	n/a	1	n/a
413.95102410001	0	9	finger press	2	2	n/a	n/a	n/a	1	n/a
414.663009700016	0	9	finger press	4	4	n/a	n/a	n/a	1	n/a
415.286882000015	0	9	finger press	3	3	n/a	n/a	n/a	1	n/a
415.878876300005	0	9	finger press	2	2	n/a	n/a	n/a	1	n/a
416.550914899999	0	9	finger press	1	1	n/a	n/a	n/a	1	n/a
417.270988900011	0	9	finger press	2	2	n/a	n/a	n/a	1	n/a
417.600000000006	5	9	stimulus	n/a	n/a	white X	n/a	n/a	1	n/a
425.880000000005	22.04	10	stimulus	n/a	n/a	white X	n/a	n/a	1	n/a
447.914107400022	10.6546854999906	10	stimulus	n/a	n/a	QGQGQGQQ	3	3	1	n/a
448.422935700015	0	10	finger press	4	4	n/a	n/a	n/a	1	n/a
449.070569800009	0	10	finger press	3	3	n/a	n/a	n/a	1	n/a
449.766935899999	0	10	finger press	4	4	n/a	n/a	n/a	1	n/a
450.462881500018	0	10	finger press	1	1	n/a	n/a	n/a	1	n/a
451.198970500001	0	10	finger press	4	4	n/a	n/a	n/a	1	n/a
451.903510300006	0	10	finger press	1	1	n/a	n/a	n/a	1	n/a
452.574980800011	0	10	finger press	2	2	n/a	n/a	n/a	1	n/a
453.286849600001	0	10	finger press	4	4	n/a	n/a	n/a	1	n/a
453.926960600016	0	10	finger press	3	3	n/a	n/a	n/a	1	n/a
454.558932800021	0	10	finger press	2	2	n/a	n/a	n/a	1	n/a
455.334879700007	0	10	finger press	1	1	n/a	n/a	n/a	1	n/a
456.0705992	0	10	finger press	2	2	n/a	n/a	n/a	1	n/a
458.559999999998	5	10	stimulus	n/a	n/a	white X	n/a	n/a	1	n/a
467.440000000002	23.04	11	stimulus	n/a	n/a	white X	n/a	n/a	1	n/a
490.477059800003	9.2179468999966	11	stimulus	n/a	n/a	CQQOQOCC	1	0	1	n/a
491.014906299999	0	11	finger press	4	4	n/a	n/a	n/a	1	n/a
491.646924000001	0	11	finger press	3	3	n/a	n/a	n/a	1	n/a
492.366875300009	0	11	finger press	4	4	n/a	n/a	n/a	1	n/a
493.046811700013	0	11	finger press	1	1	n/a	n/a	n/a	1	n/a
493.702983399999	0	11	finger press	4	4	n/a	n/a	n/a	1	n/a
494.358672400005	0	11	finger press	1	1	n/a	n/a	n/a	1	n/a
494.991000900016	0	11	finger press	2	2	n/a	n/a	n/a	1	n/a
495.71887870002	0	11	finger press	4	4	n/a	n/a	n/a	1	n/a
496.406668900017	0	11	finger press	3	3	n/a	n/a	n/a	1	n/a
496.998839300009	0	11	finger press	2	2	n/a	n/a	n/a	1	n/a
497.67090170001	0	11	finger press	1	1	n/a	n/a	n/a	1	n/a
498.382787500013	0	11	finger press	2	2	n/a	n/a	n/a	1	n/a
499.700000000012	5	11	stimulus	n/a	n/a	white X	n/a	n/a	1	n/a
