onset	duration	trial_number	event_type	executed_movement	correct_movement	shown_stimulus	reported_gs	correct_gs	included_trial	reason_for_exclusion
13	22	1	stimulus	n/a	n/a	white X	n/a	n/a	0	test trial
35	7.89723330002744	1	stimulus	n/a	n/a	QOGOCQQQ	1	1	0	test trial
36.2700000000186	0	1	foot step	4	4	n/a	n/a	n/a	0	test trial
36.9500000000116	0	1	foot step	3	3	n/a	n/a	n/a	0	test trial
37.5800000000163	0	1	foot step	4	4	n/a	n/a	n/a	0	test trial
38.2399999999907	0	1	foot step	1	1	n/a	n/a	n/a	0	test trial
38.8800000000047	0	1	foot step	4	4	n/a	n/a	n/a	0	test trial
39.5	0	1	foot step	1	1	n/a	n/a	n/a	0	test trial
40.1500000000233	0	1	foot step	2	2	n/a	n/a	n/a	0	test trial
40.820000000007	0	1	foot step	4	4	n/a	n/a	n/a	0	test trial
41.460000000021	0	1	foot step	3	3	n/a	n/a	n/a	0	test trial
42.140000000014	0	1	foot step	2	2	n/a	n/a	n/a	0	test trial
42.7700000000186	0	1	foot step	1	1	n/a	n/a	n/a	0	test trial
42.9000000000233	5	1	stimulus	n/a	n/a	white X	n/a	n/a	0	test trial
43.429999999993	0	1	foot step	2	2	n/a	n/a	n/a	0	test trial
55.539999999979	23	2	stimulus	n/a	n/a	white X	n/a	n/a	1	n/a
78.5390663000289	10.201671399991	2	stimulus	n/a	n/a	OGOOOCCG	2	2	1	n/a
79.6790663000429	0	2	foot step	4	4	n/a	n/a	n/a	1	n/a
80.3790663000545	0	2	foot step	3	3	n/a	n/a	n/a	1	n/a
81.0290663000196	0	2	foot step	4	4	n/a	n/a	n/a	1	n/a
81.6890663000522	0	2	foot step	1	1	n/a	n/a	n/a	1	n/a
82.3190663000569	0	2	foot step	4	4	n/a	n/a	n/a	1	n/a
82.9590663000126	0	2	foot step	1	1	n/a	n/a	n/a	1	n/a
83.5890663000173	0	2	foot step	2	2	n/a	n/a	n/a	1	n/a
84.2990663000382	0	2	foot step	4	4	n/a	n/a	n/a	1	n/a
84.9590663000126	0	2	foot step	3	3	n/a	n/a	n/a	1	n/a
85.649066300015	0	2	foot step	2	2	n/a	n/a	n/a	1	n/a
86.2990663000382	0	2	foot step	1	1	n/a	n/a	n/a	1	n/a
86.9190663000336	0	2	foot step	2	2	n/a	n/a	n/a	1	n/a
88.7600000000093	5	2	stimulus	n/a	n/a	white X	n/a	n/a	1	n/a
98.5599999999977	23	3	stimulus	n/a	n/a	white X	n/a	n/a	1	n/a
121.560163600021	10.9698594000074	3	stimulus	n/a	n/a	OQGCGCGG	4	4	1	n/a
123.07016360003	0	3	foot step	4	4	n/a	n/a	n/a	1	n/a
123.780163599993	0	3	foot step	3	3	n/a	n/a	n/a	1	n/a
124.470163599995	0	3	foot step	4	4	n/a	n/a	n/a	1	n/a
125.090163600049	0	3	foot step	1	1	n/a	n/a	n/a	1	n/a
125.790163600002	0	3	foot step	4	4	n/a	n/a	n/a	1	n/a
126.450163600035	0	3	foot step	1	1	n/a	n/a	n/a	1	n/a
127.170163600007	0	3	foot step	2	2	n/a	n/a	n/a	1	n/a
127.860163600009	0	3	foot step	4	4	n/a	n/a	n/a	1	n/a
128.670163600007	0	3	foot step	3	3	n/a	n/a	n/a	1	n/a
129.360163600009	0	3	foot step	2	2	n/a	n/a	n/a	1	n/a
130.010163600033	0	3	foot step	1	1	n/a	n/a	n/a	1	n/a
130.700163600035	0	3	foot step	2	2	n/a	n/a	n/a	1	n/a
132.539999999979	5	3	stimulus	n/a	n/a	white X	n/a	n/a	1	n/a
141.099999999977	22	4	stimulus	n/a	n/a	white X	n/a	n/a	1	n/a
163.097913799982	9.50686140003381	4	stimulus	n/a	n/a	GOOCGCOQ	2	2	1	n/a
164.15791379998	0	4	foot step	4	4	n/a	n/a	n/a	1	n/a
164.847913799982	0	4	foot step	3	3	n/a	n/a	n/a	1	n/a
165.557913800003	0	4	foot step	4	4	n/a	n/a	n/a	1	n/a
166.207913799968	0	4	foot step	1	1	n/a	n/a	n/a	1	n/a
166.887913799961	0	4	foot step	4	4	n/a	n/a	n/a	1	n/a
167.587913799973	0	4	foot step	1	1	n/a	n/a	n/a	1	n/a
168.267913799966	0	4	foot step	2	2	n/a	n/a	n/a	1	n/a
168.957913799968	0	4	foot step	4	4	n/a	n/a	n/a	1	n/a
169.667913799989	0	4	foot step	3	3	n/a	n/a	n/a	1	n/a
170.387913799961	0	4	foot step	2	2	n/a	n/a	n/a	1	n/a
171.087913799973	0	4	foot step	1	1	n/a	n/a	n/a	1	n/a
171.777913799975	0	4	foot step	2	2	n/a	n/a	n/a	1	n/a
172.619999999995	5	4	stimulus	n/a	n/a	white X	n/a	n/a	1	n/a
180.840000000026	24.02	5	stimulus	n/a	n/a	white X	n/a	n/a	0	erroneous trial
204.845596800034	9.33388699998613	5	stimulus	n/a	n/a	GGQGQGCC	5	4	0	erroneous trial
206.075596800016	0	5	foot step	4	4	n/a	n/a	n/a	0	erroneous trial
206.785596800037	0	5	foot step	3	3	n/a	n/a	n/a	0	erroneous trial
207.485596800048	0	5	foot step	4	4	n/a	n/a	n/a	0	erroneous trial
208.20559680002	0	5	foot step	3	1	n/a	n/a	n/a	0	erroneous trial
208.825596800016	0	5	foot step	1	4	n/a	n/a	n/a	0	erroneous trial
209.425596800051	0	5	foot step	4	1	n/a	n/a	n/a	0	erroneous trial
210.115596800053	0	5	foot step	1	2	n/a	n/a	n/a	0	erroneous trial
210.775596800027	0	5	foot step	2	4	n/a	n/a	n/a	0	erroneous trial
211.43559680006	0	5	foot step	4	3	n/a	n/a	n/a	0	erroneous trial
212.135596800013	0	5	foot step	1	2	n/a	n/a	n/a	0	erroneous trial
214.200000000012	5	5	stimulus	n/a	n/a	white X	n/a	n/a	0	erroneous trial
221.200000000012	23.02	6	stimulus	n/a	n/a	white X	n/a	n/a	0	erroneous trial
244.204982900003	10.3729240000248	6	stimulus	n/a	n/a	GQCGCOOO	3	2	0	erroneous trial
245.244982899982	0	6	foot step	4	4	n/a	n/a	n/a	0	erroneous trial
245.944982899993	0	6	foot step	3	3	n/a	n/a	n/a	0	erroneous trial
246.634982899996	0	6	foot step	4	4	n/a	n/a	n/a	0	erroneous trial
247.254982899991	0	6	foot step	1	1	n/a	n/a	n/a	0	erroneous trial
247.904982900014	0	6	foot step	4	4	n/a	n/a	n/a	0	erroneous trial
248.604982900026	0	6	foot step	2	1	n/a	n/a	n/a	0	erroneous trial
249.274982900009	0	6	foot step	4	2	n/a	n/a	n/a	0	erroneous trial
249.914982900023	0	6	foot step	1	4	n/a	n/a	n/a	0	erroneous trial
250.624982899986	0	6	foot step	2	3	n/a	n/a	n/a	0	erroneous trial
251.304982899979	0	6	foot step	3	2	n/a	n/a	n/a	0	erroneous trial
251.974982900021	0	6	foot step	2	1	n/a	n/a	n/a	0	erroneous trial
252.574982899998	0	6	foot step	1	2	n/a	n/a	n/a	0	erroneous trial
254.580000000016	5	6	stimulus	n/a	n/a	white X	n/a	n/a	0	erroneous trial
266.200000000012	23	7	stimulus	n/a	n/a	white X	n/a	n/a	1	n/a
289.191349200031	10.4782197999884	7	stimulus	n/a	n/a	COGGOQGO	3	3	1	n/a
290.391349200043	0	7	foot step	4	4	n/a	n/a	n/a	1	n/a
291.091349200055	0	7	foot step	3	3	n/a	n/a	n/a	1	n/a
291.781349200057	0	7	foot step	4	4	n/a	n/a	n/a	1	n/a
292.401349200052	0	7	foot step	1	1	n/a	n/a	n/a	1	n/a
293.051349200017	0	7	foot step	4	4	n/a	n/a	n/a	1	n/a
293.73134920001	0	7	foot step	1	1	n/a	n/a	n/a	1	n/a
294.411349200003	0	7	foot step	2	2	n/a	n/a	n/a	1	n/a
295.111349200015	0	7	foot step	4	4	n/a	n/a	n/a	1	n/a
295.771349200048	0	7	foot step	3	3	n/a	n/a	n/a	1	n/a
296.511349200038	0	7	foot step	2	2	n/a	n/a	n/a	1	n/a
297.201349200041	0	7	foot step	1	1	n/a	n/a	n/a	1	n/a
297.881349200034	0	7	foot step	2	2	n/a	n/a	n/a	1	n/a
299.679999999993	5	7	stimulus	n/a	n/a	white X	n/a	n/a	1	n/a
309.299999999988	23	8	stimulus	n/a	n/a	white X	n/a	n/a	1	n/a
332.289013899979	8.8082362000132	8	stimulus	n/a	n/a	GCQOGOOO	3	2	1	n/a
333.509013899951	0	8	foot step	4	4	n/a	n/a	n/a	1	n/a
334.209013899963	0	8	foot step	3	3	n/a	n/a	n/a	1	n/a
334.909013899975	0	8	foot step	4	4	n/a	n/a	n/a	1	n/a
335.539013899979	0	8	foot step	1	1	n/a	n/a	n/a	1	n/a
336.209013899963	0	8	foot step	4	4	n/a	n/a	n/a	1	n/a
336.879013900005	0	8	foot step	1	1	n/a	n/a	n/a	1	n/a
337.609013899986	0	8	foot step	2	2	n/a	n/a	n/a	1	n/a
338.299013899988	0	8	foot step	4	4	n/a	n/a	n/a	1	n/a
339.019013899961	0	8	foot step	3	3	n/a	n/a	n/a	1	n/a
339.699013899954	0	8	foot step	2	2	n/a	n/a	n/a	1	n/a
340.339013899968	0	8	foot step	1	1	n/a	n/a	n/a	1	n/a
341.069013900007	0	8	foot step	2	2	n/a	n/a	n/a	1	n/a
341.099999999977	5	8	stimulus	n/a	n/a	white X	n/a	n/a	1	n/a
352.659999999974	21.02	9	stimulus	n/a	n/a	white X	n/a	n/a	1	n/a
373.661164899997	9.92557130003115	9	stimulus	n/a	n/a	GGQOQQQC	2	2	1	n/a
374.941164900025	0	9	foot step	4	4	n/a	n/a	n/a	1	n/a
375.621164900018	0	9	foot step	3	3	n/a	n/a	n/a	1	n/a
376.281164899992	0	9	foot step	4	4	n/a	n/a	n/a	1	n/a
376.921164900006	0	9	foot step	1	1	n/a	n/a	n/a	1	n/a
377.611164900009	0	9	foot step	4	4	n/a	n/a	n/a	1	n/a
378.251164900023	0	9	foot step	1	1	n/a	n/a	n/a	1	n/a
378.931164900016	0	9	foot step	2	2	n/a	n/a	n/a	1	n/a
379.641164899978	0	9	foot step	4	4	n/a	n/a	n/a	1	n/a
380.31116490002	0	9	foot step	3	3	n/a	n/a	n/a	1	n/a
381.001164900023	0	9	foot step	2	2	n/a	n/a	n/a	1	n/a
381.641164899978	0	9	foot step	1	1	n/a	n/a	n/a	1	n/a
382.361164900009	0	9	foot step	2	2	n/a	n/a	n/a	1	n/a
383.599999999977	5	9	stimulus	n/a	n/a	white X	n/a	n/a	1	n/a
394.320000000007	22.02	10	stimulus	n/a	n/a	white X	n/a	n/a	1	n/a
416.326831099985	10.1127005000017	10	stimulus	n/a	n/a	OOGCOGCQ	2	2	1	n/a
417.516831099987	0	10	foot step	4	4	n/a	n/a	n/a	1	n/a
418.216831099999	0	10	foot step	3	3	n/a	n/a	n/a	1	n/a
418.876831099973	0	10	foot step	4	4	n/a	n/a	n/a	1	n/a
419.526831099996	0	10	foot step	1	1	n/a	n/a	n/a	1	n/a
420.176831099961	0	10	foot step	4	4	n/a	n/a	n/a	1	n/a
420.846831100003	0	10	foot step	1	1	n/a	n/a	n/a	1	n/a
421.516831099987	0	10	foot step	2	2	n/a	n/a	n/a	1	n/a
422.206831099989	0	10	foot step	4	4	n/a	n/a	n/a	1	n/a
422.866831099964	0	10	foot step	3	3	n/a	n/a	n/a	1	n/a
423.606831100013	0	10	foot step	2	2	n/a	n/a	n/a	1	n/a
424.286831100006	0	10	foot step	1	1	n/a	n/a	n/a	1	n/a
424.94683109998	0	10	foot step	2	2	n/a	n/a	n/a	1	n/a
426.460000000021	5	10	stimulus	n/a	n/a	white X	n/a	n/a	1	n/a
437.780000000028	22.02	11	stimulus	n/a	n/a	white X	n/a	n/a	1	n/a
459.786945700005	10.7202931999927	11	stimulus	n/a	n/a	CGGGCQGQ	4	4	1	n/a
461.126945700031	0	11	foot step	4	4	n/a	n/a	n/a	1	n/a
461.906945700001	0	11	foot step	3	3	n/a	n/a	n/a	1	n/a
462.566945700033	0	11	foot step	4	4	n/a	n/a	n/a	1	n/a
463.216945699998	0	11	foot step	1	1	n/a	n/a	n/a	1	n/a
463.856945700012	0	11	foot step	4	4	n/a	n/a	n/a	1	n/a
464.536945700005	0	11	foot step	1	1	n/a	n/a	n/a	1	n/a
465.236945700017	0	11	foot step	2	2	n/a	n/a	n/a	1	n/a
465.896945699991	0	11	foot step	4	4	n/a	n/a	n/a	1	n/a
466.536945700005	0	11	foot step	3	3	n/a	n/a	n/a	1	n/a
467.256945699977	0	11	foot step	2	2	n/a	n/a	n/a	1	n/a
467.91694570001	0	11	foot step	1	1	n/a	n/a	n/a	1	n/a
468.606945700012	0	11	foot step	2	2	n/a	n/a	n/a	1	n/a
470.520000000019	5	11	stimulus	n/a	n/a	white X	n/a	n/a	1	n/a
