onset	duration	trial_type	Response	Stimulus	RT
4.937	0.2	auditory standard stimulus presentation	n/a	n/a	n/a
7.75	0.2	auditory standard stimulus presentation	n/a	n/a	n/a
10.380999999999998	0.2	auditory standard stimulus presentation	0.0	standard	n/a
12.415999999999999	0.2	auditory standard stimulus presentation	0.0	standard	n/a
14.864	0.2	auditory oddball stimulus presentation	1.0	target	n/a
14.864	0.308	behavioral response time following auditory oddball stimulus onset	1.0	target	n/a
16.899	0.2	auditory standard stimulus presentation	0.0	standard	n/a
19.348	0.2	auditory standard stimulus presentation	0.0	standard	n/a
22.195	0.2	auditory oddball stimulus presentation	1.0	target	n/a
22.195	0.408	behavioral response time following auditory oddball stimulus onset	1.0	target	n/a
25.223000000000003	0.2	auditory standard stimulus presentation	0.0	standard	n/a
27.456999999999997	0.368	behavioral response time following auditory oddball stimulus onset	1.0	target	n/a
27.456999999999997	0.2	auditory oddball stimulus presentation	1.0	target	n/a
30.103	0.2	auditory standard stimulus presentation	0.0	standard	n/a
33.132	0.2	auditory standard stimulus presentation	0.0	standard	n/a
35.166	0.2	auditory standard stimulus presentation	0.0	standard	n/a
37.615	0.2	auditory oddball stimulus presentation	1.0	target	n/a
37.615	0.27899999999999997	behavioral response time following auditory oddball stimulus onset	1.0	target	n/a
39.652	0.2	auditory oddball stimulus presentation	1.0	target	n/a
39.652	0.33899999999999997	behavioral response time following auditory oddball stimulus onset	1.0	target	n/a
42.678999999999995	0.2	auditory oddball stimulus presentation	1.0	target	n/a
42.678999999999995	0.39799999999999996	behavioral response time following auditory oddball stimulus onset	1.0	target	n/a
44.731	0.37799999999999995	behavioral response time following auditory oddball stimulus onset	1.0	target	n/a
44.731	0.2	auditory oddball stimulus presentation	1.0	target	n/a
47.379	0.2	auditory standard stimulus presentation	0.0	standard	n/a
49.413999999999994	0.2	auditory oddball stimulus presentation	1.0	target	n/a
49.413999999999994	0.358	behavioral response time following auditory oddball stimulus onset	1.0	target	n/a
51.663000000000004	0.2	auditory standard stimulus presentation	0.0	standard	n/a
54.494	0.2	auditory standard stimulus presentation	0.0	standard	n/a
57.522	0.2	auditory standard stimulus presentation	0.0	standard	n/a
60.549	0.2	auditory standard stimulus presentation	0.0	standard	n/a
62.583999999999996	0.2	auditory standard stimulus presentation	0.0	standard	n/a
65.612	n/a	n/a	0.0	standard	n/a
68.656	0.2	auditory standard stimulus presentation	0.0	standard	n/a
70.693	0.2	auditory standard stimulus presentation	0.0	standard	n/a
73.736	0.2	auditory standard stimulus presentation	0.0	standard	n/a
76.367	0.2	auditory standard stimulus presentation	0.0	standard	n/a
79.197	0.2	auditory standard stimulus presentation	0.0	standard	n/a
82.059	0.2	auditory standard stimulus presentation	0.0	standard	n/a
85.104	0.2	auditory standard stimulus presentation	0.0	standard	n/a
87.751	0.331	behavioral response time following auditory oddball stimulus onset	1.0	target	n/a
87.751	0.2	auditory oddball stimulus presentation	1.0	target	n/a
90.382	0.2	auditory standard stimulus presentation	0.0	standard	n/a
92.83200000000001	0.2	auditory standard stimulus presentation	0.0	standard	n/a
95.859	0.2	auditory standard stimulus presentation	0.0	standard	n/a
98.887	0.2	auditory standard stimulus presentation	0.0	standard	n/a
101.535	n/a	n/a	0.0	target	n/a
103.569	0.2	auditory standard stimulus presentation	0.0	standard	n/a
106.598	0.2	auditory standard stimulus presentation	0.0	standard	n/a
109.428	0.2	auditory standard stimulus presentation	0.0	standard	n/a
111.463	0.2	auditory standard stimulus presentation	0.0	standard	n/a
113.729	0.2	auditory oddball stimulus presentation	1.0	target	n/a
113.729	0.324	behavioral response time following auditory oddball stimulus onset	1.0	target	n/a
115.963	0.2	auditory standard stimulus presentation	0.0	standard	n/a
117.99799999999999	0.2	auditory standard stimulus presentation	0.0	standard	n/a
120.82799999999999	0.2	auditory standard stimulus presentation	0.0	standard	n/a
123.67399999999999	0.2	auditory standard stimulus presentation	0.0	standard	n/a
126.51899999999999	0.2	auditory standard stimulus presentation	0.0	standard	n/a
128.968	0.2	auditory standard stimulus presentation	0.0	standard	n/a
131.202	0.2	auditory standard stimulus presentation	0.0	standard	n/a
134.048	0.2	auditory standard stimulus presentation	0.0	standard	n/a
137.092	0.2	auditory standard stimulus presentation	0.0	standard	n/a
140.138	0.2	auditory oddball stimulus presentation	1.0	target	n/a
140.138	0.373	behavioral response time following auditory oddball stimulus onset	1.0	target	n/a
142.569	0.2	auditory standard stimulus presentation	0.0	standard	n/a
145.05200000000002	0.2	auditory standard stimulus presentation	0.0	standard	n/a
147.501	0.2	auditory standard stimulus presentation	0.0	standard	n/a
149.94899999999998	0.2	auditory standard stimulus presentation	0.0	standard	n/a
152.58100000000002	0.2	auditory standard stimulus presentation	0.0	standard	n/a
155.012	0.314	behavioral response time following auditory oddball stimulus onset	1.0	target	n/a
155.012	0.2	auditory oddball stimulus presentation	1.0	target	n/a
157.065	0.2	auditory standard stimulus presentation	0.0	standard	n/a
160.092	0.389	behavioral response time following auditory oddball stimulus onset	1.0	target	n/a
160.092	0.2	auditory oddball stimulus presentation	1.0	target	n/a
162.128	0.35600000000000004	behavioral response time following auditory oddball stimulus onset	1.0	target	n/a
162.128	0.2	auditory oddball stimulus presentation	1.0	target	n/a
164.18	0.34700000000000003	behavioral response time following auditory oddball stimulus onset	1.0	target	n/a
164.18	0.2	auditory oddball stimulus presentation	1.0	target	n/a
166.827	0.2	auditory standard stimulus presentation	0.0	standard	n/a
169.06099999999998	0.2	auditory standard stimulus presentation	0.0	standard	n/a
171.493	0.2	auditory standard stimulus presentation	0.0	standard	n/a
174.14	0.2	auditory standard stimulus presentation	0.0	standard	n/a
176.771	0.2	auditory standard stimulus presentation	0.0	standard	n/a
179.22	0.2	auditory standard stimulus presentation	0.0	standard	n/a
181.271	0.2	auditory standard stimulus presentation	0.0	standard	n/a
183.903	n/a	n/a	0.0	target	n/a
186.136	0.2	auditory standard stimulus presentation	0.0	standard	n/a
188.37	0.2	auditory oddball stimulus presentation	1.0	target	n/a
188.37	0.503	behavioral response time following auditory oddball stimulus onset	1.0	target	n/a
191.217	0.2	auditory standard stimulus presentation	0.0	standard	n/a
194.046	0.2	auditory standard stimulus presentation	0.0	standard	n/a
196.891	0.2	auditory standard stimulus presentation	0.0	standard	n/a
199.125	0.2	auditory standard stimulus presentation	0.0	standard	n/a
201.16099999999997	0.2	auditory oddball stimulus presentation	1.0	target	n/a
201.16099999999997	0.353	behavioral response time following auditory oddball stimulus onset	1.0	target	n/a
203.791	0.2	auditory standard stimulus presentation	0.0	standard	n/a
206.22400000000002	0.2	auditory standard stimulus presentation	0.0	standard	n/a
208.47400000000002	0.2	auditory standard stimulus presentation	0.0	standard	n/a
211.104	0.2	auditory standard stimulus presentation	0.0	standard	n/a
214.149	0.2	auditory standard stimulus presentation	0.0	standard	n/a
216.38400000000001	0.2	auditory standard stimulus presentation	0.0	standard	n/a
219.21200000000002	0.2	auditory standard stimulus presentation	0.0	standard	n/a
221.86	0.2	auditory standard stimulus presentation	0.0	standard	n/a
224.49099999999999	0.2	auditory standard stimulus presentation	0.0	standard	n/a
227.138	0.2	auditory standard stimulus presentation	0.0	standard	n/a
229.968	0.2	auditory standard stimulus presentation	0.0	standard	n/a
232.202	0.2	auditory standard stimulus presentation	0.0	standard	n/a
234.236	0.2	auditory standard stimulus presentation	0.0	standard	n/a
236.488	0.2	auditory standard stimulus presentation	0.0	standard	n/a
239.53099999999998	0.2	auditory oddball stimulus presentation	1.0	target	n/a
239.53099999999998	0.33799999999999997	behavioral response time following auditory oddball stimulus onset	1.0	target	n/a
241.583	0.2	auditory standard stimulus presentation	0.0	standard	n/a
244.611	0.2	auditory oddball stimulus presentation	1.0	target	n/a
244.611	0.366	behavioral response time following auditory oddball stimulus onset	1.0	target	n/a
246.64700000000002	0.2	auditory standard stimulus presentation	0.0	standard	n/a
248.88	0.2	auditory standard stimulus presentation	0.0	standard	n/a
251.313	0.2	auditory oddball stimulus presentation	1.0	target	n/a
251.313	0.525	behavioral response time following auditory oddball stimulus onset	1.0	target	n/a
254.15900000000002	0.2	auditory oddball stimulus presentation	1.0	target	n/a
254.15900000000002	0.379	behavioral response time following auditory oddball stimulus onset	1.0	target	n/a
257.203	0.2	auditory standard stimulus presentation	0.0	standard	n/a
260.032	0.2	auditory standard stimulus presentation	0.0	standard	n/a
262.465	0.2	auditory standard stimulus presentation	0.0	standard	n/a
264.89799999999997	0.2	auditory standard stimulus presentation	0.0	standard	n/a
266.933	0.2	auditory standard stimulus presentation	0.0	standard	n/a
269.778	0.2	auditory oddball stimulus presentation	1.0	target	n/a
269.778	0.298	behavioral response time following auditory oddball stimulus onset	1.0	target	n/a
272.013	0.2	auditory standard stimulus presentation	0.0	standard	n/a
274.246	n/a	n/a	1.0	target	n/a
276.894	0.2	auditory standard stimulus presentation	0.0	standard	n/a
279.938	0.2	auditory standard stimulus presentation	0.0	standard	n/a
282.966	0.2	auditory standard stimulus presentation	0.0	standard	n/a
285.811	0.2	auditory standard stimulus presentation	0.0	standard	n/a
288.459	0.2	auditory standard stimulus presentation	0.0	standard	n/a
291.091	0.2	auditory standard stimulus presentation	0.0	standard	n/a
293.737	0.2	auditory standard stimulus presentation	0.0	standard	n/a
296.783	0.2	auditory standard stimulus presentation	0.0	standard	n/a
299.231	0.2	auditory standard stimulus presentation	0.0	standard	n/a
302.077	0.2	auditory standard stimulus presentation	0.0	standard	n/a
304.31	0.2	auditory standard stimulus presentation	0.0	standard	n/a
306.54400000000004	0.2	auditory standard stimulus presentation	0.0	standard	n/a
309.39	0.2	auditory standard stimulus presentation	0.0	standard	n/a
312.435	0.2	auditory standard stimulus presentation	0.0	standard	n/a
314.868	0.2	auditory standard stimulus presentation	0.0	standard	n/a
317.515	0.2	auditory standard stimulus presentation	0.0	standard	n/a
320.56	0.2	auditory standard stimulus presentation	0.0	standard	n/a
323.388	0.2	auditory standard stimulus presentation	0.0	standard	n/a
n/a	n/a	n/a	4.937	0	standard
n/a	n/a	n/a	7.75	0	standard
