onset	duration	trial_type	Response	Stimulus	RT
4.937	0.2	auditory standard stimulus presentation	n/a	n/a	n/a
7.75	0.2	auditory standard stimulus presentation	n/a	n/a	n/a
10.381	0.2	auditory standard stimulus presentation	0.0	standard	n/a
12.416	0.2	auditory standard stimulus presentation	0.0	standard	n/a
14.864	0.308	behavioral response time following auditory oddball stimulus onset	1.0	target	n/a
14.864	0.2	auditory oddball stimulus presentation	1.0	target	n/a
16.899	0.2	auditory standard stimulus presentation	0.0	standard	n/a
19.348	0.2	auditory standard stimulus presentation	0.0	standard	n/a
22.195	0.2	auditory oddball stimulus presentation	1.0	target	n/a
22.195	0.408	behavioral response time following auditory oddball stimulus onset	1.0	target	n/a
25.223	0.2	auditory standard stimulus presentation	0.0	standard	n/a
27.457	0.2	auditory oddball stimulus presentation	1.0	target	n/a
27.457	0.368	behavioral response time following auditory oddball stimulus onset	1.0	target	n/a
30.103	0.2	auditory standard stimulus presentation	0.0	standard	n/a
33.132	0.2	auditory standard stimulus presentation	0.0	standard	n/a
35.166	0.2	auditory standard stimulus presentation	0.0	standard	n/a
37.615	0.279	behavioral response time following auditory oddball stimulus onset	1.0	target	n/a
37.615	0.2	auditory oddball stimulus presentation	1.0	target	n/a
39.652	0.339	behavioral response time following auditory oddball stimulus onset	1.0	target	n/a
39.652	0.2	auditory oddball stimulus presentation	1.0	target	n/a
42.679	0.2	auditory oddball stimulus presentation	1.0	target	n/a
42.679	0.398	behavioral response time following auditory oddball stimulus onset	1.0	target	n/a
44.731	0.2	auditory oddball stimulus presentation	1.0	target	n/a
44.731	0.378	behavioral response time following auditory oddball stimulus onset	1.0	target	n/a
47.379	0.2	auditory standard stimulus presentation	0.0	standard	n/a
49.414	0.2	auditory oddball stimulus presentation	1.0	target	n/a
49.414	0.358	behavioral response time following auditory oddball stimulus onset	1.0	target	n/a
51.663	0.2	auditory standard stimulus presentation	0.0	standard	n/a
54.494	0.2	auditory standard stimulus presentation	0.0	standard	n/a
57.522	0.2	auditory standard stimulus presentation	0.0	standard	n/a
60.549	0.2	auditory standard stimulus presentation	0.0	standard	n/a
62.584	0.2	auditory standard stimulus presentation	0.0	standard	n/a
65.612	n/a	n/a	0.0	standard	n/a
68.656	0.2	auditory standard stimulus presentation	0.0	standard	n/a
70.693	0.2	auditory standard stimulus presentation	0.0	standard	n/a
73.736	0.2	auditory standard stimulus presentation	0.0	standard	n/a
76.367	0.2	auditory standard stimulus presentation	0.0	standard	n/a
79.197	0.2	auditory standard stimulus presentation	0.0	standard	n/a
82.059	0.2	auditory standard stimulus presentation	0.0	standard	n/a
85.104	0.2	auditory standard stimulus presentation	0.0	standard	n/a
87.751	0.2	auditory oddball stimulus presentation	1.0	target	n/a
87.751	0.331	behavioral response time following auditory oddball stimulus onset	1.0	target	n/a
90.382	0.2	auditory standard stimulus presentation	0.0	standard	n/a
92.832	0.2	auditory standard stimulus presentation	0.0	standard	n/a
95.859	0.2	auditory standard stimulus presentation	0.0	standard	n/a
98.887	0.2	auditory standard stimulus presentation	0.0	standard	n/a
101.535	n/a	n/a	0.0	target	n/a
103.569	0.2	auditory standard stimulus presentation	0.0	standard	n/a
106.598	0.2	auditory standard stimulus presentation	0.0	standard	n/a
109.428	0.2	auditory standard stimulus presentation	0.0	standard	n/a
111.463	0.2	auditory standard stimulus presentation	0.0	standard	n/a
113.729	0.2	auditory oddball stimulus presentation	1.0	target	n/a
113.729	0.324	behavioral response time following auditory oddball stimulus onset	1.0	target	n/a
115.963	0.2	auditory standard stimulus presentation	0.0	standard	n/a
117.998	0.2	auditory standard stimulus presentation	0.0	standard	n/a
120.828	0.2	auditory standard stimulus presentation	0.0	standard	n/a
123.674	0.2	auditory standard stimulus presentation	0.0	standard	n/a
126.519	0.2	auditory standard stimulus presentation	0.0	standard	n/a
128.968	0.2	auditory standard stimulus presentation	0.0	standard	n/a
131.202	0.2	auditory standard stimulus presentation	0.0	standard	n/a
134.048	0.2	auditory standard stimulus presentation	0.0	standard	n/a
137.092	0.2	auditory standard stimulus presentation	0.0	standard	n/a
140.138	0.373	behavioral response time following auditory oddball stimulus onset	1.0	target	n/a
140.138	0.2	auditory oddball stimulus presentation	1.0	target	n/a
142.569	0.2	auditory standard stimulus presentation	0.0	standard	n/a
145.052	0.2	auditory standard stimulus presentation	0.0	standard	n/a
147.501	0.2	auditory standard stimulus presentation	0.0	standard	n/a
149.949	0.2	auditory standard stimulus presentation	0.0	standard	n/a
152.581	0.2	auditory standard stimulus presentation	0.0	standard	n/a
155.012	0.2	auditory oddball stimulus presentation	1.0	target	n/a
155.012	0.314	behavioral response time following auditory oddball stimulus onset	1.0	target	n/a
157.065	0.2	auditory standard stimulus presentation	0.0	standard	n/a
160.092	0.389	behavioral response time following auditory oddball stimulus onset	1.0	target	n/a
160.092	0.2	auditory oddball stimulus presentation	1.0	target	n/a
162.128	0.356	behavioral response time following auditory oddball stimulus onset	1.0	target	n/a
162.128	0.2	auditory oddball stimulus presentation	1.0	target	n/a
164.18	0.347	behavioral response time following auditory oddball stimulus onset	1.0	target	n/a
164.18	0.2	auditory oddball stimulus presentation	1.0	target	n/a
166.827	0.2	auditory standard stimulus presentation	0.0	standard	n/a
169.061	0.2	auditory standard stimulus presentation	0.0	standard	n/a
171.493	0.2	auditory standard stimulus presentation	0.0	standard	n/a
174.14	0.2	auditory standard stimulus presentation	0.0	standard	n/a
176.771	0.2	auditory standard stimulus presentation	0.0	standard	n/a
179.22	0.2	auditory standard stimulus presentation	0.0	standard	n/a
181.271	0.2	auditory standard stimulus presentation	0.0	standard	n/a
183.903	n/a	n/a	0.0	target	n/a
186.136	0.2	auditory standard stimulus presentation	0.0	standard	n/a
188.37	0.2	auditory oddball stimulus presentation	1.0	target	n/a
188.37	0.503	behavioral response time following auditory oddball stimulus onset	1.0	target	n/a
191.217	0.2	auditory standard stimulus presentation	0.0	standard	n/a
194.046	0.2	auditory standard stimulus presentation	0.0	standard	n/a
196.891	0.2	auditory standard stimulus presentation	0.0	standard	n/a
199.125	0.2	auditory standard stimulus presentation	0.0	standard	n/a
201.161	0.2	auditory oddball stimulus presentation	1.0	target	n/a
201.161	0.353	behavioral response time following auditory oddball stimulus onset	1.0	target	n/a
203.791	0.2	auditory standard stimulus presentation	0.0	standard	n/a
206.224	0.2	auditory standard stimulus presentation	0.0	standard	n/a
208.474	0.2	auditory standard stimulus presentation	0.0	standard	n/a
211.104	0.2	auditory standard stimulus presentation	0.0	standard	n/a
214.149	0.2	auditory standard stimulus presentation	0.0	standard	n/a
216.384	0.2	auditory standard stimulus presentation	0.0	standard	n/a
219.212	0.2	auditory standard stimulus presentation	0.0	standard	n/a
221.86	0.2	auditory standard stimulus presentation	0.0	standard	n/a
224.491	0.2	auditory standard stimulus presentation	0.0	standard	n/a
227.138	0.2	auditory standard stimulus presentation	0.0	standard	n/a
229.968	0.2	auditory standard stimulus presentation	0.0	standard	n/a
232.202	0.2	auditory standard stimulus presentation	0.0	standard	n/a
234.236	0.2	auditory standard stimulus presentation	0.0	standard	n/a
236.488	0.2	auditory standard stimulus presentation	0.0	standard	n/a
239.531	0.2	auditory oddball stimulus presentation	1.0	target	n/a
239.531	0.338	behavioral response time following auditory oddball stimulus onset	1.0	target	n/a
241.583	0.2	auditory standard stimulus presentation	0.0	standard	n/a
244.611	0.2	auditory oddball stimulus presentation	1.0	target	n/a
244.611	0.366	behavioral response time following auditory oddball stimulus onset	1.0	target	n/a
246.647	0.2	auditory standard stimulus presentation	0.0	standard	n/a
248.88	0.2	auditory standard stimulus presentation	0.0	standard	n/a
251.313	0.2	auditory oddball stimulus presentation	1.0	target	n/a
251.313	0.525	behavioral response time following auditory oddball stimulus onset	1.0	target	n/a
254.159	0.379	behavioral response time following auditory oddball stimulus onset	1.0	target	n/a
254.159	0.2	auditory oddball stimulus presentation	1.0	target	n/a
257.203	0.2	auditory standard stimulus presentation	0.0	standard	n/a
260.032	0.2	auditory standard stimulus presentation	0.0	standard	n/a
262.465	0.2	auditory standard stimulus presentation	0.0	standard	n/a
264.898	0.2	auditory standard stimulus presentation	0.0	standard	n/a
266.933	0.2	auditory standard stimulus presentation	0.0	standard	n/a
269.778	0.298	behavioral response time following auditory oddball stimulus onset	1.0	target	n/a
269.778	0.2	auditory oddball stimulus presentation	1.0	target	n/a
272.013	0.2	auditory standard stimulus presentation	0.0	standard	n/a
274.246	n/a	n/a	1.0	target	n/a
276.894	0.2	auditory standard stimulus presentation	0.0	standard	n/a
279.938	0.2	auditory standard stimulus presentation	0.0	standard	n/a
282.966	0.2	auditory standard stimulus presentation	0.0	standard	n/a
285.811	0.2	auditory standard stimulus presentation	0.0	standard	n/a
288.459	0.2	auditory standard stimulus presentation	0.0	standard	n/a
291.091	0.2	auditory standard stimulus presentation	0.0	standard	n/a
293.737	0.2	auditory standard stimulus presentation	0.0	standard	n/a
296.783	0.2	auditory standard stimulus presentation	0.0	standard	n/a
299.231	0.2	auditory standard stimulus presentation	0.0	standard	n/a
302.077	0.2	auditory standard stimulus presentation	0.0	standard	n/a
304.31	0.2	auditory standard stimulus presentation	0.0	standard	n/a
306.544	0.2	auditory standard stimulus presentation	0.0	standard	n/a
309.39	0.2	auditory standard stimulus presentation	0.0	standard	n/a
312.435	0.2	auditory standard stimulus presentation	0.0	standard	n/a
314.868	0.2	auditory standard stimulus presentation	0.0	standard	n/a
317.515	0.2	auditory standard stimulus presentation	0.0	standard	n/a
320.56	0.2	auditory standard stimulus presentation	0.0	standard	n/a
323.388	0.2	auditory standard stimulus presentation	0.0	standard	n/a
n/a	n/a	n/a	4.937	0	standard
n/a	n/a	n/a	7.75	0	standard
