onset	duration	trial_type	Response	Stimulus	RT
4.751	0.2	visual standard stimulus presentation	n/a	n/a	n/a
7.563	0.2	visual standard stimulus presentation	n/a	n/a	n/a
10.376	0.2	visual standard stimulus presentation	0.0	standard	n/a
12.776	0.357	behavioral response time following visual oddball stimulus onset	1.0	target	n/a
12.776	0.2	visual oddball stimulus presentation	1.0	target	n/a
15.77	0.2	visual standard stimulus presentation	0.0	standard	n/a
18.368	0.2	visual standard stimulus presentation	0.0	standard	n/a
21.362	0.2	visual standard stimulus presentation	0.0	standard	n/a
24.159	0.2	visual standard stimulus presentation	0.0	standard	n/a
26.756	0.2	visual standard stimulus presentation	0.0	standard	n/a
29.156	0.2	visual standard stimulus presentation	0.0	standard	n/a
31.356	0.2	visual standard stimulus presentation	0.0	standard	n/a
33.757	0.2	visual standard stimulus presentation	0.0	standard	n/a
36.156	0.2	visual standard stimulus presentation	0.0	standard	n/a
38.555	0.2	visual oddball stimulus presentation	1.0	target	n/a
38.555	0.418	behavioral response time following visual oddball stimulus onset	1.0	target	n/a
40.755	0.2	visual oddball stimulus presentation	1.0	target	n/a
40.755	0.521	behavioral response time following visual oddball stimulus onset	1.0	target	n/a
43.552	0.2	visual standard stimulus presentation	0.0	standard	n/a
45.95	0.2	visual oddball stimulus presentation	1.0	target	n/a
45.95	0.468	behavioral response time following visual oddball stimulus onset	1.0	target	n/a
48.548	0.2	visual standard stimulus presentation	0.0	standard	n/a
51.344	0.2	visual standard stimulus presentation	0.0	standard	n/a
53.348	0.2	visual standard stimulus presentation	0.0	standard	n/a
55.945	0.31	behavioral response time following visual oddball stimulus onset	1.0	target	n/a
55.945	0.2	visual oddball stimulus presentation	1.0	target	n/a
58.145	0.2	visual standard stimulus presentation	0.0	standard	n/a
61.141	0.2	visual oddball stimulus presentation	1.0	target	n/a
61.141	0.461	behavioral response time following visual oddball stimulus onset	1.0	target	n/a
64.136	0.2	visual standard stimulus presentation	0.0	standard	n/a
67.13	0.2	visual standard stimulus presentation	0.0	standard	n/a
69.133	0.2	visual standard stimulus presentation	0.0	standard	n/a
71.731	0.2	visual standard stimulus presentation	0.0	standard	n/a
73.93	0.2	visual oddball stimulus presentation	1.0	target	n/a
73.93	0.369	behavioral response time following visual oddball stimulus onset	1.0	target	n/a
76.925	0.2	visual standard stimulus presentation	0.0	standard	n/a
79.921	0.2	visual oddball stimulus presentation	1.0	target	n/a
79.921	0.452	behavioral response time following visual oddball stimulus onset	1.0	target	n/a
82.916	0.2	visual standard stimulus presentation	0.0	standard	n/a
85.513	0.2	visual oddball stimulus presentation	1.0	target	n/a
85.513	0.367	behavioral response time following visual oddball stimulus onset	1.0	target	n/a
88.31	0.2	visual standard stimulus presentation	0.0	standard	n/a
91.305	0.2	visual standard stimulus presentation	0.0	standard	n/a
93.704	0.338	behavioral response time following visual oddball stimulus onset	1.0	target	n/a
93.704	0.2	visual oddball stimulus presentation	1.0	target	n/a
96.301	0.2	visual standard stimulus presentation	0.0	standard	n/a
98.304	0.2	visual standard stimulus presentation	0.0	standard	n/a
100.306	0.2	visual standard stimulus presentation	0.0	standard	n/a
102.903	0.2	visual standard stimulus presentation	0.0	standard	n/a
105.502	0.2	visual standard stimulus presentation	0.0	standard	n/a
107.503	0.421	behavioral response time following visual oddball stimulus onset	1.0	target	n/a
107.503	0.2	visual oddball stimulus presentation	1.0	target	n/a
110.102	0.2	visual standard stimulus presentation	0.0	standard	n/a
112.103	0.2	visual standard stimulus presentation	0.0	standard	n/a
114.106	0.2	visual standard stimulus presentation	0.0	standard	n/a
116.504	0.2	visual standard stimulus presentation	0.0	standard	n/a
118.705	0.2	visual standard stimulus presentation	0.0	standard	n/a
121.303	0.2	visual standard stimulus presentation	0.0	standard	n/a
123.305	0.409	behavioral response time following visual oddball stimulus onset	1.0	target	n/a
123.305	0.2	visual oddball stimulus presentation	1.0	target	n/a
125.506	0.2	visual standard stimulus presentation	0.0	standard	n/a
127.509	0.2	visual standard stimulus presentation	0.0	standard	n/a
129.907	0.2	visual standard stimulus presentation	0.0	standard	n/a
132.505	0.2	visual standard stimulus presentation	0.0	standard	n/a
135.301	0.2	visual standard stimulus presentation	0.0	standard	n/a
137.303	0.2	visual standard stimulus presentation	0.0	standard	n/a
139.703	0.2	visual standard stimulus presentation	0.0	standard	n/a
141.704	0.2	visual standard stimulus presentation	0.0	standard	n/a
144.502	0.2	visual standard stimulus presentation	0.0	standard	n/a
146.701	0.2	visual oddball stimulus presentation	1.0	target	n/a
146.701	0.315	behavioral response time following visual oddball stimulus onset	1.0	target	n/a
149.696	0.2	visual standard stimulus presentation	0.0	standard	n/a
152.097	0.2	visual oddball stimulus presentation	1.0	target	n/a
152.097	0.414	behavioral response time following visual oddball stimulus onset	1.0	target	n/a
154.893	0.2	visual standard stimulus presentation	0.0	standard	n/a
157.491	0.2	visual standard stimulus presentation	0.0	standard	n/a
160.287	0.2	visual standard stimulus presentation	0.0	standard	n/a
163.281	0.2	visual standard stimulus presentation	0.0	standard	n/a
165.483	0.2	visual standard stimulus presentation	0.0	standard	n/a
167.484	0.394	behavioral response time following visual oddball stimulus onset	1.0	target	n/a
167.484	0.2	visual oddball stimulus presentation	1.0	target	n/a
169.486	0.2	visual oddball stimulus presentation	1.0	target	n/a
169.486	0.38	behavioral response time following visual oddball stimulus onset	1.0	target	n/a
172.282	0.2	visual standard stimulus presentation	0.0	standard	n/a
174.682	0.2	visual standard stimulus presentation	0.0	standard	n/a
177.081	0.2	visual standard stimulus presentation	0.0	standard	n/a
179.48	0.2	visual standard stimulus presentation	0.0	standard	n/a
182.475	0.547	behavioral response time following visual oddball stimulus onset	1.0	target	n/a
182.475	0.2	visual oddball stimulus presentation	1.0	target	n/a
184.675	0.2	visual standard stimulus presentation	0.0	standard	n/a
186.678	0.353	behavioral response time following visual oddball stimulus onset	1.0	target	n/a
186.678	0.2	visual oddball stimulus presentation	1.0	target	n/a
189.077	0.2	visual standard stimulus presentation	0.0	standard	n/a
191.277	0.2	visual standard stimulus presentation	0.0	standard	n/a
193.677	0.2	visual oddball stimulus presentation	1.0	target	n/a
193.677	0.432	behavioral response time following visual oddball stimulus onset	1.0	target	n/a
195.877	0.2	visual standard stimulus presentation	0.0	standard	n/a
198.675	0.2	visual standard stimulus presentation	0.0	standard	n/a
200.676	0.2	visual standard stimulus presentation	0.0	standard	n/a
202.678	0.2	visual oddball stimulus presentation	1.0	target	n/a
202.678	0.362	behavioral response time following visual oddball stimulus onset	1.0	target	n/a
205.077	0.2	visual standard stimulus presentation	0.0	standard	n/a
207.476	0.2	visual standard stimulus presentation	0.0	standard	n/a
210.074	0.2	visual standard stimulus presentation	0.0	standard	n/a
212.076	0.2	visual standard stimulus presentation	0.0	standard	n/a
214.278	0.2	visual oddball stimulus presentation	1.0	target	n/a
214.278	0.41	behavioral response time following visual oddball stimulus onset	1.0	target	n/a
216.478	0.2	visual standard stimulus presentation	0.0	standard	n/a
218.878	0.2	visual standard stimulus presentation	0.0	standard	n/a
221.277	0.2	visual standard stimulus presentation	0.0	standard	n/a
223.279	0.2	visual standard stimulus presentation	0.0	standard	n/a
226.273	0.2	visual standard stimulus presentation	0.0	standard	n/a
229.268	0.2	visual standard stimulus presentation	0.0	standard	n/a
231.668	0.2	visual standard stimulus presentation	0.0	standard	n/a
234.067	0.2	visual standard stimulus presentation	0.0	standard	n/a
236.466	0.2	visual standard stimulus presentation	0.0	standard	n/a
239.461	0.2	visual oddball stimulus presentation	1.0	target	n/a
239.461	0.362	behavioral response time following visual oddball stimulus onset	1.0	target	n/a
242.455	0.2	visual standard stimulus presentation	0.0	standard	n/a
244.855	0.2	visual standard stimulus presentation	0.0	standard	n/a
247.453	0.2	visual standard stimulus presentation	0.0	standard	n/a
250.249	0.2	visual standard stimulus presentation	0.0	standard	n/a
252.251	0.2	visual standard stimulus presentation	0.0	standard	n/a
255.246	0.2	visual standard stimulus presentation	0.0	standard	n/a
257.249	0.2	visual standard stimulus presentation	0.0	standard	n/a
259.648	0.2	visual standard stimulus presentation	0.0	standard	n/a
262.245	0.2	visual oddball stimulus presentation	1.0	target	n/a
262.245	0.347	behavioral response time following visual oddball stimulus onset	1.0	target	n/a
265.042	0.2	visual standard stimulus presentation	0.0	standard	n/a
267.441	0.2	visual standard stimulus presentation	0.0	standard	n/a
269.642	0.2	visual standard stimulus presentation	0.0	standard	n/a
271.643	0.2	visual standard stimulus presentation	0.0	standard	n/a
274.241	0.2	visual standard stimulus presentation	0.0	standard	n/a
276.839	0.2	visual standard stimulus presentation	0.0	standard	n/a
278.841	0.2	visual standard stimulus presentation	0.0	standard	n/a
281.637	0.2	visual standard stimulus presentation	0.0	standard	n/a
284.236	0.2	visual standard stimulus presentation	0.0	standard	n/a
287.231	0.2	visual standard stimulus presentation	0.0	standard	n/a
290.027	0.2	visual standard stimulus presentation	0.0	standard	n/a
292.624	0.2	visual standard stimulus presentation	0.0	standard	n/a
295.223	0.2	visual standard stimulus presentation	0.0	standard	n/a
297.622	0.2	visual standard stimulus presentation	0.0	standard	n/a
300.02	0.2	visual oddball stimulus presentation	1.0	target	n/a
300.02	0.293	behavioral response time following visual oddball stimulus onset	1.0	target	n/a
302.421	0.2	visual standard stimulus presentation	0.0	standard	n/a
305.415	n/a	n/a	0.0	standard	n/a
308.212	0.2	visual standard stimulus presentation	0.0	standard	n/a
311.207	0.2	visual oddball stimulus presentation	1.0	target	n/a
311.207	0.395	behavioral response time following visual oddball stimulus onset	1.0	target	n/a
313.209	0.2	visual standard stimulus presentation	0.0	standard	n/a
n/a	n/a	n/a	4.751	0	standard
n/a	n/a	n/a	7.563	0	standard
