onset	duration	trial_type	TrialType	Stimulus	SSD	Response	response_time	CorrectGo	SuccStop
0.000	1.500	go-noncritical	0	1	0.000	50	0.360	1	0
2.125	1.500	go-noncritical	0	1	0.000	50	0.337	1	0
4.750	1.500	go-critical	0	0	0.000	49	0.400	1	0
6.750	1.500	go-noncritical	0	1	0.000	50	0.248	1	0
9.750	1.500	failed stop-critical	1	0	0.200	49	0.376	1	0
12.000	1.500	go-critical	0	0	0.000	49	0.454	1	0
14.625	1.500	go-noncritical	0	1	0.000	50	0.269	1	0
16.875	1.500	go-noncritical	0	1	0.000	50	0.339	1	0
19.500	1.500	successful stop-critical	1	0	0.100	0	0.000	0	1
23.125	1.500	failed stop-noncritical	1	1	0.100	50	0.257	1	0
25.500	1.500	go-critical	0	0	0.000	49	0.570	1	0
27.750	1.500	go-noncritical	0	1	0.000	50	0.576	1	0
31.875	1.500	failed stop-noncritical	1	1	0.200	50	0.331	1	0
35.875	1.500	failed stop-noncritical	1	1	0.150	50	0.299	1	0
38.875	1.500	go-noncritical	0	1	0.000	50	0.283	1	0
41.125	1.500	go-noncritical	0	1	0.000	50	0.257	1	0
43.375	1.500	junk	0	0	0.000	50	0.207	0	0
45.625	1.500	junk	0	0	0.000	50	0.229	0	0
47.750	1.500	go-critical	0	0	0.000	49	0.504	1	0
49.875	1.500	go-critical	0	0	0.000	49	0.555	1	0
52.500	1.500	go-noncritical	0	1	0.000	50	0.362	1	0
54.500	1.500	go-noncritical	0	1	0.000	50	0.402	1	0
57.125	1.500	go-noncritical	0	1	0.000	50	0.345	1	0
59.500	1.500	failed stop-critical	1	0	0.250	49	0.370	1	0
62.125	1.500	go-critical	0	0	0.000	49	0.409	1	0
64.875	1.500	go-noncritical	0	1	0.000	50	0.307	1	0
66.875	1.500	go-critical	0	0	0.000	49	0.403	1	0
69.125	1.500	go-critical	0	0	0.000	49	0.369	1	0
72.500	1.500	failed stop-critical	1	0	0.150	49	0.378	1	0
75.250	1.500	failed stop-noncritical	1	1	0.250	50	0.388	1	0
79.625	1.500	go-critical	0	0	0.000	49	0.365	1	0
84.000	1.500	go-critical	0	0	0.000	49	0.358	1	0
86.250	1.500	go-noncritical	0	1	0.000	50	0.462	1	0
89.125	1.500	go-noncritical	0	1	0.000	50	0.393	1	0
91.500	1.500	failed stop-noncritical	1	1	0.150	50	0.370	1	0
93.750	1.500	go-noncritical	0	1	0.000	50	0.296	1	0
95.750	1.500	go-noncritical	0	1	0.000	50	0.296	1	0
97.750	1.500	go-noncritical	0	1	0.000	50	0.416	1	0
99.750	1.500	go-critical	0	0	0.000	49	0.416	1	0
102.500	1.500	failed stop-noncritical	1	1	0.200	50	0.402	1	0
104.500	1.500	successful stop-critical	1	0	0.100	0	0.000	0	1
106.875	1.500	failed stop-noncritical	1	1	0.150	50	0.299	1	0
110.875	1.500	go-critical	0	0	0.000	49	0.459	1	0
113.000	1.500	go-critical	0	0	0.000	49	0.334	1	0
116.125	1.500	successful stop-critical	1	0	0.150	0	0.000	0	1
118.625	1.500	go-noncritical	0	1	0.000	50	0.293	1	0
121.500	1.500	failed stop-critical	1	0	0.200	49	0.354	1	0
125.875	1.500	go-critical	0	0	0.000	49	0.635	1	0
128.500	1.500	go-critical	0	0	0.000	49	0.362	1	0
130.875	1.500	failed stop-critical	1	0	0.150	49	0.315	1	0
133.875	1.500	go-critical	0	0	0.000	49	0.307	1	0
136.000	1.500	go-noncritical	0	1	0.000	50	0.374	1	0
140.875	1.500	go-noncritical	0	1	0.000	50	0.331	1	0
143.625	1.500	go-noncritical	0	1	0.000	50	0.269	1	0
145.875	1.500	go-critical	0	0	0.000	49	0.459	1	0
149.625	1.500	go-noncritical	0	1	0.000	50	0.293	1	0
151.625	1.500	go-critical	0	0	0.000	49	0.421	1	0
154.500	1.500	go-critical	0	0	0.000	49	0.410	1	0
157.250	1.500	go-noncritical	0	1	0.000	50	0.404	1	0
161.375	1.500	go-critical	0	0	0.000	49	0.407	1	0
163.500	1.500	go-critical	0	0	0.000	49	0.354	1	0
166.375	1.500	failed stop-noncritical	1	1	0.100	50	0.527	1	0
168.500	1.500	go-critical	0	0	0.000	49	0.394	1	0
170.750	1.500	go-noncritical	0	1	0.000	50	0.312	1	0
172.750	1.500	successful stop-critical	1	0	0.100	0	0.000	0	1
175.750	1.500	go-noncritical	0	1	0.000	50	0.296	1	0
178.000	1.500	go-critical	0	0	0.000	49	0.438	1	0
182.625	1.500	go-noncritical	0	1	0.000	50	0.293	1	0
185.750	1.500	go-noncritical	0	1	0.000	50	0.272	1	0
187.750	1.500	go-noncritical	0	1	0.000	50	0.320	1	0
190.125	1.500	failed stop-critical	1	0	0.150	49	0.313	1	0
193.000	1.500	go-noncritical	0	1	0.000	50	0.270	1	0
195.125	1.500	successful stop-critical	1	0	0.150	0	0.000	0	1
198.375	1.500	go-critical	0	0	0.000	49	0.471	1	0
200.500	1.500	go-noncritical	0	1	0.000	50	0.338	1	0
202.875	1.500	go-critical	0	0	0.000	49	0.427	1	0
205.750	1.500	go-critical	0	0	0.000	49	0.488	1	0
209.125	1.500	failed stop-critical	1	0	0.200	49	0.377	1	0
211.125	1.500	failed stop-noncritical	1	1	0.150	50	0.369	1	0
214.875	1.500	go-noncritical	0	1	0.000	50	0.283	1	0
217.125	1.500	go-critical	0	0	0.000	49	0.418	1	0
219.500	1.500	go-noncritical	0	1	0.000	50	0.299	1	0
222.500	1.500	go-critical	0	0	0.000	49	0.363	1	0
225.000	1.500	go-critical	0	0	0.000	49	0.414	1	0
227.875	1.500	go-noncritical	0	1	0.000	50	0.380	1	0
230.125	1.500	failed stop-noncritical	1	1	0.150	50	0.290	1	0
232.375	1.500	failed stop-noncritical	1	1	0.100	50	0.336	1	0
235.125	1.500	failed stop-noncritical	1	1	0.200	50	0.321	1	0
237.125	1.500	go-critical	0	0	0.000	49	0.385	1	0
239.250	1.500	go-noncritical	0	1	0.000	50	0.356	1	0
242.250	1.500	go-critical	0	0	0.000	49	0.540	1	0
244.625	1.500	go-critical	0	0	0.000	49	0.317	1	0
247.125	1.500	go-noncritical	0	1	0.000	50	0.289	1	0
250.250	1.500	go-noncritical	0	1	0.000	50	0.261	1	0
252.625	1.500	junk	0	0	0.000	50	0.285	0	0
255.000	1.500	go-critical	0	0	0.000	49	0.446	1	0
257.250	1.500	go-noncritical	0	1	0.000	50	0.319	1	0
260.375	1.500	go-noncritical	0	1	0.000	50	0.327	1	0
262.625	1.500	go-critical	0	0	0.000	49	0.381	1	0
265.250	1.500	failed stop-critical	1	0	0.200	49	0.372	1	0
268.875	1.500	go-noncritical	0	1	0.000	50	0.331	1	0
272.250	1.500	go-noncritical	0	1	0.000	50	0.325	1	0
275.375	1.500	failed stop-noncritical	1	1	0.100	50	0.375	1	0
278.500	1.500	go-critical	0	0	0.000	49	0.411	1	0
280.625	1.500	go-critical	0	0	0.000	49	0.422	1	0
283.000	1.500	go-critical	0	0	0.000	49	0.398	1	0
288.375	1.500	go-critical	0	0	0.000	49	0.359	1	0
290.375	1.500	go-critical	0	0	0.000	49	0.279	1	0
292.500	1.500	go-noncritical	0	1	0.000	50	0.362	1	0
294.500	1.500	failed stop-noncritical	1	1	0.200	50	0.298	1	0
298.500	1.500	go-noncritical	0	1	0.000	50	0.290	1	0
300.500	1.500	go-critical	0	0	0.000	49	0.387	1	0
303.125	1.500	go-critical	0	0	0.000	49	0.553	1	0
305.875	1.500	go-noncritical	0	1	0.000	50	0.412	1	0
308.000	1.500	failed stop-noncritical	1	1	0.150	50	0.255	1	0
310.250	1.500	go-noncritical	0	1	0.000	50	0.268	1	0
312.750	1.500	go-noncritical	0	1	0.000	50	0.272	1	0
315.375	1.500	failed stop-critical	1	0	0.150	49	0.367	1	0
317.750	1.500	go-critical	0	0	0.000	49	0.464	1	0
320.125	1.500	go-noncritical	0	1	0.000	50	0.401	1	0
323.500	1.500	go-noncritical	0	1	0.000	50	0.315	1	0
325.750	1.500	go-critical	0	0	0.000	49	0.424	1	0
329.000	1.500	go-noncritical	0	1	0.000	50	0.359	1	0
331.125	1.500	go-critical	0	0	0.000	49	0.394	1	0
333.375	1.500	failed stop-noncritical	1	1	0.150	50	0.312	1	0
337.250	1.500	failed stop-critical	1	0	0.100	49	0.348	1	0
340.875	1.500	go-critical	0	0	0.000	49	0.444	1	0
343.375	1.500	successful stop-critical	1	0	0.150	0	0.000	0	1
