onset	duration	trial_type	Response	Stimulus	RT
4.683	0.2	auditory standard stimulus presentation	n/a	n/a	n/a
7.695	0.2	auditory standard stimulus presentation	n/a	n/a	n/a
10.325999999999999	0.2	auditory standard stimulus presentation	0.0	standard	n/a
12.559000000000001	0.2	auditory standard stimulus presentation	0.0	standard	n/a
15.008	0.2	auditory standard stimulus presentation	0.0	standard	n/a
18.035999999999998	0.2	auditory standard stimulus presentation	0.0	standard	n/a
20.881999999999998	0.2	auditory standard stimulus presentation	0.0	standard	n/a
23.926	0.2	auditory standard stimulus presentation	0.0	standard	n/a
26.773000000000003	0.2	auditory standard stimulus presentation	0.0	standard	n/a
29.601	0.2	auditory standard stimulus presentation	0.0	standard	n/a
32.431	0.2	auditory standard stimulus presentation	0.0	standard	n/a
34.881	0.2	auditory standard stimulus presentation	0.0	standard	n/a
37.312	0.2	auditory standard stimulus presentation	0.0	standard	n/a
39.563	0.2	auditory standard stimulus presentation	0.0	standard	n/a
42.608000000000004	0.2	auditory standard stimulus presentation	0.0	standard	n/a
45.239	0.2	auditory standard stimulus presentation	0.0	standard	n/a
47.87	0.2	auditory standard stimulus presentation	0.0	standard	n/a
50.318000000000005	0.2	auditory standard stimulus presentation	0.0	standard	n/a
53.361999999999995	0.44799999999999995	behavioral response time following auditory oddball stimulus onset	1.0	target	n/a
53.361999999999995	0.2	auditory oddball stimulus presentation	1.0	target	n/a
56.408	0.44799999999999995	behavioral response time following auditory oddball stimulus onset	1.0	target	n/a
56.408	0.2	auditory oddball stimulus presentation	1.0	target	n/a
58.855	0.2	auditory standard stimulus presentation	0.0	standard	n/a
61.901	0.2	auditory standard stimulus presentation	0.0	standard	n/a
63.93600000000001	0.2	auditory standard stimulus presentation	0.0	standard	n/a
66.385	0.2	auditory standard stimulus presentation	0.0	standard	n/a
68.833	0.2	auditory standard stimulus presentation	0.0	standard	n/a
71.87899999999999	0.2	auditory standard stimulus presentation	0.0	standard	n/a
74.509	0.498	behavioral response time following auditory oddball stimulus onset	1.0	target	n/a
74.509	0.2	auditory oddball stimulus presentation	1.0	target	n/a
76.957	0.2	auditory standard stimulus presentation	0.0	standard	n/a
79.207	0.2	auditory standard stimulus presentation	0.0	standard	n/a
82.054	0.2	auditory standard stimulus presentation	0.0	standard	n/a
85.116	0.2	auditory standard stimulus presentation	0.0	standard	n/a
87.564	0.2	auditory standard stimulus presentation	0.0	standard	n/a
90.194	0.2	auditory standard stimulus presentation	0.0	standard	n/a
93.024	0.2	auditory standard stimulus presentation	0.0	standard	n/a
95.655	0.2	auditory standard stimulus presentation	0.0	standard	n/a
98.103	0.2	auditory standard stimulus presentation	0.0	standard	n/a
100.338	0.2	auditory standard stimulus presentation	0.0	standard	n/a
102.985	0.2	auditory standard stimulus presentation	0.0	standard	n/a
106.01299999999999	0.2	auditory standard stimulus presentation	0.0	standard	n/a
108.86	0.2	auditory standard stimulus presentation	0.0	standard	n/a
111.291	0.2	auditory oddball stimulus presentation	1.0	target	n/a
111.291	0.495	behavioral response time following auditory oddball stimulus onset	1.0	target	n/a
113.52600000000001	0.2	auditory standard stimulus presentation	0.0	standard	n/a
116.37200000000001	0.2	auditory standard stimulus presentation	0.0	standard	n/a
118.804	0.2	auditory standard stimulus presentation	0.0	standard	n/a
121.054	0.2	auditory standard stimulus presentation	0.0	standard	n/a
123.089	0.2	auditory standard stimulus presentation	0.0	standard	n/a
125.72	0.2	auditory standard stimulus presentation	0.0	standard	n/a
127.755	0.2	auditory oddball stimulus presentation	1.0	target	n/a
127.755	0.475	behavioral response time following auditory oddball stimulus onset	1.0	target	n/a
130.22	0.2	auditory standard stimulus presentation	0.0	standard	n/a
132.719	0.2	auditory oddball stimulus presentation	1.0	target	n/a
132.719	0.405	behavioral response time following auditory oddball stimulus onset	1.0	target	n/a
134.952	0.2	auditory standard stimulus presentation	0.0	standard	n/a
137.998	0.2	auditory standard stimulus presentation	0.0	standard	n/a
140.033	0.2	auditory oddball stimulus presentation	1.0	target	n/a
140.033	0.42700000000000005	behavioral response time following auditory oddball stimulus onset	1.0	target	n/a
142.282	0.488	behavioral response time following auditory oddball stimulus onset	1.0	target	n/a
142.282	0.2	auditory oddball stimulus presentation	1.0	target	n/a
144.91299999999998	0.2	auditory standard stimulus presentation	0.0	standard	n/a
146.94799999999998	0.2	auditory standard stimulus presentation	0.0	standard	n/a
148.985	0.489	behavioral response time following auditory oddball stimulus onset	1.0	target	n/a
148.985	0.2	auditory oddball stimulus presentation	1.0	target	n/a
151.83100000000002	0.2	auditory standard stimulus presentation	0.0	standard	n/a
154.874	0.2	auditory standard stimulus presentation	0.0	standard	n/a
157.705	0.2	auditory standard stimulus presentation	0.0	standard	n/a
160.748	0.2	auditory standard stimulus presentation	0.0	standard	n/a
162.983	0.2	auditory standard stimulus presentation	0.0	standard	n/a
165.81099999999998	0.2	auditory standard stimulus presentation	0.0	standard	n/a
168.24400000000003	0.585	behavioral response time following auditory oddball stimulus onset	1.0	target	n/a
168.24400000000003	0.2	auditory oddball stimulus presentation	1.0	target	n/a
171.07299999999998	0.2	auditory oddball stimulus presentation	1.0	target	n/a
171.07299999999998	0.309	behavioral response time following auditory oddball stimulus onset	1.0	target	n/a
173.704	0.2	auditory standard stimulus presentation	0.0	standard	n/a
176.169	0.2	auditory standard stimulus presentation	0.0	standard	n/a
178.61900000000003	0.2	auditory standard stimulus presentation	0.0	standard	n/a
181.46400000000003	0.2	auditory oddball stimulus presentation	1.0	target	n/a
181.46400000000003	0.608	behavioral response time following auditory oddball stimulus onset	1.0	target	n/a
183.699	0.2	auditory standard stimulus presentation	0.0	standard	n/a
186.74400000000003	0.2	auditory standard stimulus presentation	0.0	standard	n/a
188.778	0.2	auditory standard stimulus presentation	0.0	standard	n/a
191.013	0.2	auditory standard stimulus presentation	0.0	standard	n/a
193.842	0.2	auditory standard stimulus presentation	0.0	standard	n/a
195.87599999999998	0.2	auditory standard stimulus presentation	0.0	standard	n/a
197.91299999999998	0.2	auditory oddball stimulus presentation	1.0	target	n/a
197.91299999999998	0.515	behavioral response time following auditory oddball stimulus onset	1.0	target	n/a
200.162	0.2	auditory standard stimulus presentation	0.0	standard	n/a
203.19	0.2	auditory standard stimulus presentation	0.0	standard	n/a
205.424	0.2	auditory standard stimulus presentation	0.0	standard	n/a
207.675	0.2	auditory oddball stimulus presentation	1.0	target	n/a
207.675	0.381	behavioral response time following auditory oddball stimulus onset	1.0	target	n/a
210.503	0.2	auditory standard stimulus presentation	0.0	standard	n/a
212.53799999999998	0.2	auditory standard stimulus presentation	0.0	standard	n/a
214.77200000000002	0.496	behavioral response time following auditory oddball stimulus onset	1.0	target	n/a
214.77200000000002	0.2	auditory oddball stimulus presentation	1.0	target	n/a
216.80900000000003	0.2	auditory standard stimulus presentation	0.0	standard	n/a
219.455	0.2	auditory standard stimulus presentation	0.0	standard	n/a
221.50799999999998	0.39799999999999996	behavioral response time following auditory oddball stimulus onset	1.0	target	n/a
221.50799999999998	0.2	auditory oddball stimulus presentation	1.0	target	n/a
224.155	0.2	auditory standard stimulus presentation	0.0	standard	n/a
226.785	0.2	auditory standard stimulus presentation	0.0	standard	n/a
228.821	0.2	auditory standard stimulus presentation	0.0	standard	n/a
231.865	0.2	auditory standard stimulus presentation	0.0	standard	n/a
234.31400000000002	0.2	auditory standard stimulus presentation	0.0	standard	n/a
236.34900000000002	0.2	auditory standard stimulus presentation	0.0	standard	n/a
238.997	0.2	auditory oddball stimulus presentation	1.0	target	n/a
238.997	0.466	behavioral response time following auditory oddball stimulus onset	1.0	target	n/a
241.842	0.2	auditory standard stimulus presentation	0.0	standard	n/a
244.27599999999998	0.2	auditory standard stimulus presentation	0.0	standard	n/a
246.50799999999998	0.2	auditory standard stimulus presentation	0.0	standard	n/a
248.94099999999997	0.2	auditory standard stimulus presentation	0.0	standard	n/a
250.976	0.2	auditory standard stimulus presentation	0.0	standard	n/a
253.805	0.2	auditory standard stimulus presentation	0.0	standard	n/a
256.85	0.48200000000000004	behavioral response time following auditory oddball stimulus onset	1.0	target	n/a
256.85	0.2	auditory oddball stimulus presentation	1.0	target	n/a
259.3	0.2	auditory standard stimulus presentation	0.0	standard	n/a
262.343	0.455	behavioral response time following auditory oddball stimulus onset	1.0	target	n/a
262.343	0.2	auditory oddball stimulus presentation	1.0	target	n/a
264.379	0.2	auditory oddball stimulus presentation	1.0	target	n/a
264.379	0.541	behavioral response time following auditory oddball stimulus onset	1.0	target	n/a
266.828	0.2	auditory standard stimulus presentation	0.0	standard	n/a
269.476	0.2	auditory standard stimulus presentation	0.0	standard	n/a
272.123	0.2	auditory standard stimulus presentation	0.0	standard	n/a
275.151	0.2	auditory standard stimulus presentation	0.0	standard	n/a
278.17900000000003	0.2	auditory oddball stimulus presentation	1.0	target	n/a
278.17900000000003	0.517	behavioral response time following auditory oddball stimulus onset	1.0	target	n/a
281.207	0.2	auditory standard stimulus presentation	0.0	standard	n/a
284.252	0.2	auditory standard stimulus presentation	0.0	standard	n/a
286.683	0.2	auditory standard stimulus presentation	0.0	standard	n/a
288.91700000000003	0.2	auditory standard stimulus presentation	0.0	standard	n/a
291.565	0.40399999999999997	behavioral response time following auditory oddball stimulus onset	1.0	target	n/a
291.565	0.2	auditory oddball stimulus presentation	1.0	target	n/a
294.014	0.2	auditory standard stimulus presentation	0.0	standard	n/a
296.445	0.40700000000000003	behavioral response time following auditory oddball stimulus onset	1.0	target	n/a
296.445	0.2	auditory oddball stimulus presentation	1.0	target	n/a
298.481	0.2	auditory standard stimulus presentation	0.0	standard	n/a
300.92900000000003	0.455	behavioral response time following auditory oddball stimulus onset	1.0	target	n/a
300.92900000000003	0.2	auditory oddball stimulus presentation	1.0	target	n/a
303.992	0.2	auditory standard stimulus presentation	0.0	standard	n/a
306.837	0.2	auditory standard stimulus presentation	0.0	standard	n/a
309.07099999999997	0.2	auditory standard stimulus presentation	0.0	standard	n/a
311.155	0.496	behavioral response time following auditory oddball stimulus onset	1.0	target	n/a
311.155	0.2	auditory oddball stimulus presentation	1.0	target	n/a
313.853	0.2	auditory standard stimulus presentation	0.0	standard	n/a
316.087	0.2	auditory standard stimulus presentation	0.0	standard	n/a
318.733	0.2	auditory standard stimulus presentation	0.0	standard	n/a
321.76099999999997	0.2	auditory standard stimulus presentation	0.0	standard	n/a
n/a	n/a	n/a	4.683	1	standard
n/a	n/a	n/a	7.695	0	standard
