onset	duration	trial_type	Response	Stimulus	RT
5.502	0.2	visual standard stimulus presentation	n/a	n/a	n/a
8.315	0.2	visual standard stimulus presentation	n/a	n/a	n/a
11.129	0.2	visual standard stimulus presentation	0.0	standard	n/a
13.328	0.2	visual standard stimulus presentation	0.0	standard	n/a
15.331	0.2	visual standard stimulus presentation	0.0	standard	n/a
17.73	0.2	visual standard stimulus presentation	0.0	standard	n/a
20.13	0.2	visual standard stimulus presentation	0.0	standard	n/a
23.124	0.2	visual standard stimulus presentation	0.0	standard	n/a
25.524	0.2	visual standard stimulus presentation	0.0	standard	n/a
27.922	0.2	visual standard stimulus presentation	0.0	standard	n/a
29.924	0.2	visual standard stimulus presentation	0.0	standard	n/a
32.722	0.2	visual standard stimulus presentation	0.0	standard	n/a
35.121	0.2	visual standard stimulus presentation	0.0	standard	n/a
37.917	0.418	behavioral response time following visual oddball stimulus onset	1.0	target	n/a
37.917	0.2	visual oddball stimulus presentation	1.0	target	n/a
40.118	0.436	behavioral response time following visual oddball stimulus onset	1.0	target	n/a
40.118	0.2	visual oddball stimulus presentation	1.0	target	n/a
42.517	0.2	visual standard stimulus presentation	0.0	standard	n/a
45.511	n/a	n/a	0.0	standard	n/a
48.11	0.2	visual standard stimulus presentation	0.0	standard	n/a
50.112	0.2	visual standard stimulus presentation	0.0	standard	n/a
52.908	0.2	visual standard stimulus presentation	0.0	standard	n/a
55.903	0.2	visual standard stimulus presentation	0.0	standard	n/a
58.501	0.2	visual standard stimulus presentation	0.0	standard	n/a
61.098	0.2	visual standard stimulus presentation	0.0	standard	n/a
63.696	0.2	visual standard stimulus presentation	0.0	standard	n/a
65.699	0.2	visual standard stimulus presentation	0.0	standard	n/a
67.701	0.2	visual standard stimulus presentation	0.0	standard	n/a
69.702	0.2	visual standard stimulus presentation	0.0	standard	n/a
71.704	0.2	visual oddball stimulus presentation	1.0	target	n/a
71.704	0.459	behavioral response time following visual oddball stimulus onset	1.0	target	n/a
74.302	0.2	visual standard stimulus presentation	0.0	standard	n/a
76.9	0.2	visual standard stimulus presentation	0.0	standard	n/a
79.3	0.2	visual standard stimulus presentation	0.0	standard	n/a
82.095	n/a	n/a	0.0	standard	n/a
85.09	n/a	n/a	1.0	target	n/a
87.092	0.2	visual standard stimulus presentation	0.0	standard	n/a
89.293	0.2	visual standard stimulus presentation	0.0	standard	n/a
91.295	0.2	visual standard stimulus presentation	0.0	standard	n/a
93.694	0.2	visual standard stimulus presentation	0.0	standard	n/a
96.492	0.2	visual standard stimulus presentation	0.0	standard	n/a
99.486	0.2	visual standard stimulus presentation	0.0	standard	n/a
102.282	0.2	visual standard stimulus presentation	0.0	standard	n/a
105.277	0.2	visual standard stimulus presentation	0.0	standard	n/a
107.876	0.2	visual standard stimulus presentation	0.0	standard	n/a
110.671	0.2	visual standard stimulus presentation	0.0	standard	n/a
113.667	0.2	visual standard stimulus presentation	0.0	standard	n/a
116.066	0.2	visual standard stimulus presentation	0.0	standard	n/a
118.862	0.2	visual standard stimulus presentation	0.0	standard	n/a
121.658	0.2	visual standard stimulus presentation	0.0	standard	n/a
123.859	0.2	visual standard stimulus presentation	0.0	standard	n/a
126.854	0.2	visual standard stimulus presentation	0.0	standard	n/a
129.451	0.2	visual standard stimulus presentation	0.0	standard	n/a
131.454	0.2	visual standard stimulus presentation	0.0	standard	n/a
134.448	0.2	visual oddball stimulus presentation	1.0	target	n/a
134.448	0.469	behavioral response time following visual oddball stimulus onset	1.0	target	n/a
137.245	0.2	visual standard stimulus presentation	0.0	standard	n/a
140.041	0.2	visual standard stimulus presentation	0.0	standard	n/a
142.838	0.2	visual standard stimulus presentation	0.0	standard	n/a
145.635	0.2	visual standard stimulus presentation	0.0	standard	n/a
147.636	0.479	behavioral response time following visual oddball stimulus onset	1.0	target	n/a
147.636	0.2	visual oddball stimulus presentation	1.0	target	n/a
150.631	0.448	behavioral response time following visual oddball stimulus onset	1.0	target	n/a
150.631	0.2	visual oddball stimulus presentation	1.0	target	n/a
153.031	0.2	visual standard stimulus presentation	0.0	standard	n/a
155.032	0.2	visual standard stimulus presentation	0.0	standard	n/a
157.034	0.2	visual oddball stimulus presentation	1.0	target	n/a
157.034	0.627	behavioral response time following visual oddball stimulus onset	1.0	target	n/a
159.235	0.2	visual standard stimulus presentation	0.0	standard	n/a
161.238	0.2	visual standard stimulus presentation	0.0	standard	n/a
164.033	0.2	visual standard stimulus presentation	0.0	standard	n/a
166.83	0.2	visual standard stimulus presentation	0.0	standard	n/a
168.832	0.2	visual standard stimulus presentation	0.0	standard	n/a
171.628	0.2	visual standard stimulus presentation	0.0	standard	n/a
174.424	0.2	visual oddball stimulus presentation	1.0	target	n/a
174.424	0.462	behavioral response time following visual oddball stimulus onset	1.0	target	n/a
177.221	0.51	behavioral response time following visual oddball stimulus onset	1.0	target	n/a
177.221	0.2	visual oddball stimulus presentation	1.0	target	n/a
179.422	0.2	visual standard stimulus presentation	0.0	standard	n/a
182.416	0.2	visual standard stimulus presentation	0.0	standard	n/a
184.419	0.2	visual standard stimulus presentation	0.0	standard	n/a
187.215	0.2	visual standard stimulus presentation	0.0	standard	n/a
189.615	0.2	visual standard stimulus presentation	0.0	standard	n/a
192.013	0.2	visual standard stimulus presentation	0.0	standard	n/a
194.015	0.2	visual standard stimulus presentation	0.0	standard	n/a
196.216	0.476	behavioral response time following visual oddball stimulus onset	1.0	target	n/a
196.216	0.2	visual oddball stimulus presentation	1.0	target	n/a
199.012	0.2	visual standard stimulus presentation	0.0	standard	n/a
201.809	0.2	visual oddball stimulus presentation	1.0	target	n/a
201.809	0.681	behavioral response time following visual oddball stimulus onset	1.0	target	n/a
204.406	0.2	visual standard stimulus presentation	0.0	standard	n/a
207.005	0.2	visual standard stimulus presentation	0.0	standard	n/a
209.801	0.2	visual standard stimulus presentation	0.0	standard	n/a
212.399	0.2	visual standard stimulus presentation	0.0	standard	n/a
214.599	0.2	visual standard stimulus presentation	0.0	standard	n/a
216.8	0.2	visual standard stimulus presentation	0.0	standard	n/a
219.0	0.2	visual standard stimulus presentation	0.0	standard	n/a
221.003	0.2	visual standard stimulus presentation	0.0	standard	n/a
223.997	0.2	visual oddball stimulus presentation	1.0	target	n/a
223.997	0.608	behavioral response time following visual oddball stimulus onset	1.0	target	n/a
226.595	n/a	n/a	1.0	target	n/a
229.391	0.2	visual oddball stimulus presentation	1.0	target	n/a
229.391	0.592	behavioral response time following visual oddball stimulus onset	1.0	target	n/a
231.593	0.2	visual standard stimulus presentation	0.0	standard	n/a
234.587	0.2	visual oddball stimulus presentation	1.0	target	n/a
234.587	0.707	behavioral response time following visual oddball stimulus onset	1.0	target	n/a
236.986	0.2	visual oddball stimulus presentation	1.0	target	n/a
236.986	0.432	behavioral response time following visual oddball stimulus onset	1.0	target	n/a
239.783	0.2	visual standard stimulus presentation	0.0	standard	n/a
242.579	0.2	visual standard stimulus presentation	0.0	standard	n/a
245.574	0.2	visual standard stimulus presentation	0.0	standard	n/a
247.776	0.2	visual oddball stimulus presentation	1.0	target	n/a
247.776	0.511	behavioral response time following visual oddball stimulus onset	1.0	target	n/a
250.571	0.2	visual standard stimulus presentation	0.0	standard	n/a
252.574	0.2	visual standard stimulus presentation	0.0	standard	n/a
255.172	0.2	visual oddball stimulus presentation	1.0	target	n/a
255.172	0.52	behavioral response time following visual oddball stimulus onset	1.0	target	n/a
258.166	0.2	visual standard stimulus presentation	0.0	standard	n/a
260.765	n/a	n/a	0.0	target	n/a
263.561	0.2	visual standard stimulus presentation	0.0	standard	n/a
265.96	0.2	visual standard stimulus presentation	0.0	standard	n/a
268.557	0.2	visual standard stimulus presentation	0.0	standard	n/a
270.758	0.321	behavioral response time following visual oddball stimulus onset	1.0	target	n/a
270.758	0.2	visual oddball stimulus presentation	1.0	target	n/a
273.356	0.2	visual standard stimulus presentation	0.0	standard	n/a
275.357	0.2	visual standard stimulus presentation	0.0	standard	n/a
277.36	0.2	visual standard stimulus presentation	0.0	standard	n/a
279.561	0.2	visual standard stimulus presentation	0.0	standard	n/a
281.959	0.2	visual standard stimulus presentation	0.0	standard	n/a
284.36	0.548	behavioral response time following visual oddball stimulus onset	1.0	target	n/a
284.36	0.2	visual oddball stimulus presentation	1.0	target	n/a
286.759	0.2	visual standard stimulus presentation	0.0	standard	n/a
288.761	0.2	visual standard stimulus presentation	0.0	standard	n/a
290.762	0.2	visual standard stimulus presentation	0.0	standard	n/a
292.963	0.2	visual standard stimulus presentation	0.0	standard	n/a
295.959	0.2	visual standard stimulus presentation	0.0	standard	n/a
298.953	0.2	visual standard stimulus presentation	0.0	standard	n/a
301.75	0.2	visual standard stimulus presentation	0.0	standard	n/a
304.347	0.2	visual standard stimulus presentation	0.0	standard	n/a
306.945	0.2	visual standard stimulus presentation	0.0	standard	n/a
309.146	0.677	behavioral response time following visual oddball stimulus onset	1.0	target	n/a
309.146	0.2	visual oddball stimulus presentation	1.0	target	n/a
311.545	0.2	visual standard stimulus presentation	0.0	standard	n/a
313.746	0.2	visual oddball stimulus presentation	1.0	target	n/a
313.746	0.43	behavioral response time following visual oddball stimulus onset	1.0	target	n/a
316.344	0.42	behavioral response time following visual oddball stimulus onset	1.0	target	n/a
316.344	0.2	visual oddball stimulus presentation	1.0	target	n/a
n/a	n/a	n/a	5.502	0	standard
n/a	n/a	n/a	8.315	0	standard
