onset	duration	trial_type	Response	Stimulus	RT
4.873	0.2	visual standard stimulus presentation	n/a	n/a	n/a
7.884	0.2	visual standard stimulus presentation	n/a	n/a	n/a
10.698	0.438	behavioral response time following visual oddball stimulus onset	1.0	target	n/a
10.698	0.2	visual oddball stimulus presentation	1.0	target	n/a
13.691	0.2	visual standard stimulus presentation	0.0	standard	n/a
15.694	0.2	visual standard stimulus presentation	0.0	standard	n/a
17.696	0.2	visual standard stimulus presentation	0.0	standard	n/a
20.096	0.2	visual standard stimulus presentation	0.0	standard	n/a
22.891	0.2	visual standard stimulus presentation	0.0	standard	n/a
25.092	0.2	visual standard stimulus presentation	0.0	standard	n/a
27.691	0.456	behavioral response time following visual oddball stimulus onset	1.0	target	n/a
27.691	0.2	visual oddball stimulus presentation	1.0	target	n/a
30.487	0.2	visual standard stimulus presentation	0.0	standard	n/a
33.481	0.2	visual oddball stimulus presentation	1.0	target	n/a
33.481	0.364	behavioral response time following visual oddball stimulus onset	1.0	target	n/a
35.881	n/a	n/a	0.0	standard	n/a
38.478	0.2	visual standard stimulus presentation	0.0	standard	n/a
41.077	0.2	visual standard stimulus presentation	0.0	standard	n/a
43.078	0.2	visual standard stimulus presentation	0.0	standard	n/a
45.081	0.2	visual standard stimulus presentation	0.0	standard	n/a
48.075	n/a	n/a	1.0	target	n/a
50.276	0.2	visual standard stimulus presentation	0.0	standard	n/a
53.072	0.2	visual standard stimulus presentation	0.0	standard	n/a
55.074	0.2	visual standard stimulus presentation	0.0	standard	n/a
58.069	0.2	visual standard stimulus presentation	0.0	standard	n/a
60.468	0.2	visual oddball stimulus presentation	1.0	target	n/a
60.468	0.34	behavioral response time following visual oddball stimulus onset	1.0	target	n/a
62.471	0.2	visual standard stimulus presentation	0.0	standard	n/a
65.268	0.2	visual standard stimulus presentation	0.0	standard	n/a
67.27	0.2	visual standard stimulus presentation	0.0	standard	n/a
69.668	0.2	visual standard stimulus presentation	0.0	standard	n/a
72.068	0.2	visual oddball stimulus presentation	1.0	target	n/a
72.068	0.315	behavioral response time following visual oddball stimulus onset	1.0	target	n/a
74.665	0.2	visual standard stimulus presentation	0.0	standard	n/a
77.064	0.2	visual standard stimulus presentation	0.0	standard	n/a
79.464	0.2	visual standard stimulus presentation	0.0	standard	n/a
82.062	0.2	visual standard stimulus presentation	0.0	standard	n/a
84.859	0.2	visual standard stimulus presentation	0.0	standard	n/a
87.258	0.2	visual standard stimulus presentation	0.0	standard	n/a
89.26	0.395	behavioral response time following visual oddball stimulus onset	1.0	target	n/a
89.26	0.2	visual oddball stimulus presentation	1.0	target	n/a
92.056	0.2	visual oddball stimulus presentation	1.0	target	n/a
92.056	0.437	behavioral response time following visual oddball stimulus onset	1.0	target	n/a
94.653	0.2	visual standard stimulus presentation	0.0	standard	n/a
96.855	0.2	visual standard stimulus presentation	0.0	standard	n/a
99.054	0.2	visual standard stimulus presentation	0.0	standard	n/a
101.454	0.2	visual standard stimulus presentation	0.0	standard	n/a
103.457	0.2	visual standard stimulus presentation	0.0	standard	n/a
105.856	0.324	behavioral response time following visual oddball stimulus onset	1.0	target	n/a
105.856	0.2	visual oddball stimulus presentation	1.0	target	n/a
108.057	0.395	behavioral response time following visual oddball stimulus onset	1.0	target	n/a
108.057	0.2	visual oddball stimulus presentation	1.0	target	n/a
111.052	0.2	visual standard stimulus presentation	0.0	standard	n/a
113.054	n/a	n/a	0.0	standard	n/a
116.048	0.2	visual standard stimulus presentation	0.0	standard	n/a
118.646	0.2	visual standard stimulus presentation	0.0	standard	n/a
120.846	0.373	behavioral response time following visual oddball stimulus onset	1.0	target	n/a
120.846	0.2	visual oddball stimulus presentation	1.0	target	n/a
123.643	0.2	visual standard stimulus presentation	0.0	standard	n/a
125.844	0.2	visual standard stimulus presentation	0.0	standard	n/a
128.243	0.2	visual standard stimulus presentation	0.0	standard	n/a
131.039	0.2	visual standard stimulus presentation	0.0	standard	n/a
133.041	0.2	visual standard stimulus presentation	0.0	standard	n/a
135.638	0.2	visual standard stimulus presentation	0.0	standard	n/a
138.633	0.2	visual standard stimulus presentation	0.0	standard	n/a
140.636	0.2	visual oddball stimulus presentation	1.0	target	n/a
140.636	0.449	behavioral response time following visual oddball stimulus onset	1.0	target	n/a
143.035	0.2	visual standard stimulus presentation	0.0	standard	n/a
145.235	0.341	behavioral response time following visual oddball stimulus onset	1.0	target	n/a
145.235	0.2	visual oddball stimulus presentation	1.0	target	n/a
147.239	0.2	visual standard stimulus presentation	0.0	standard	n/a
149.836	0.388	behavioral response time following visual oddball stimulus onset	1.0	target	n/a
149.836	0.2	visual oddball stimulus presentation	1.0	target	n/a
152.434	0.2	visual standard stimulus presentation	0.0	standard	n/a
155.23	0.2	visual standard stimulus presentation	0.0	standard	n/a
157.431	n/a	n/a	0.0	standard	n/a
160.227	0.2	visual standard stimulus presentation	0.0	standard	n/a
162.626	0.2	visual standard stimulus presentation	0.0	standard	n/a
165.621	0.2	visual oddball stimulus presentation	1.0	target	n/a
165.621	0.445	behavioral response time following visual oddball stimulus onset	1.0	target	n/a
168.219	0.2	visual standard stimulus presentation	0.0	standard	n/a
170.817	0.2	visual oddball stimulus presentation	1.0	target	n/a
170.817	0.409	behavioral response time following visual oddball stimulus onset	1.0	target	n/a
173.216	0.2	visual standard stimulus presentation	0.0	standard	n/a
176.012	0.2	visual standard stimulus presentation	0.0	standard	n/a
178.611	0.2	visual standard stimulus presentation	0.0	standard	n/a
180.613	0.2	visual standard stimulus presentation	0.0	standard	n/a
183.408	0.2	visual standard stimulus presentation	0.0	standard	n/a
185.807	0.2	visual standard stimulus presentation	0.0	standard	n/a
188.207	0.527	behavioral response time following visual oddball stimulus onset	1.0	target	n/a
188.207	0.2	visual oddball stimulus presentation	1.0	target	n/a
191.004	0.2	visual standard stimulus presentation	0.0	standard	n/a
193.602	0.2	visual standard stimulus presentation	0.0	standard	n/a
196.398	0.409	behavioral response time following visual oddball stimulus onset	1.0	target	n/a
196.398	0.2	visual oddball stimulus presentation	1.0	target	n/a
198.797	0.431	behavioral response time following visual oddball stimulus onset	1.0	target	n/a
198.797	0.2	visual oddball stimulus presentation	1.0	target	n/a
200.998	0.2	visual standard stimulus presentation	0.0	standard	n/a
203.596	0.2	visual standard stimulus presentation	0.0	standard	n/a
206.193	0.2	visual standard stimulus presentation	0.0	standard	n/a
208.593	0.2	visual oddball stimulus presentation	1.0	target	n/a
208.593	0.363	behavioral response time following visual oddball stimulus onset	1.0	target	n/a
210.594	0.2	visual standard stimulus presentation	0.0	standard	n/a
213.59	0.2	visual standard stimulus presentation	0.0	standard	n/a
215.592	0.2	visual standard stimulus presentation	0.0	standard	n/a
217.791	0.2	visual standard stimulus presentation	0.0	standard	n/a
220.787	0.2	visual standard stimulus presentation	0.0	standard	n/a
223.385	0.2	visual standard stimulus presentation	0.0	standard	n/a
225.585	0.2	visual standard stimulus presentation	0.0	standard	n/a
228.58	0.2	visual standard stimulus presentation	0.0	standard	n/a
231.376	0.2	visual oddball stimulus presentation	1.0	target	n/a
231.376	0.356	behavioral response time following visual oddball stimulus onset	1.0	target	n/a
233.578	0.2	visual standard stimulus presentation	0.0	standard	n/a
235.977	0.2	visual standard stimulus presentation	0.0	standard	n/a
238.574	0.2	visual standard stimulus presentation	0.0	standard	n/a
240.974	0.2	visual standard stimulus presentation	0.0	standard	n/a
243.174	0.2	visual standard stimulus presentation	0.0	standard	n/a
245.97	0.2	visual standard stimulus presentation	0.0	standard	n/a
248.172	0.2	visual standard stimulus presentation	0.0	standard	n/a
250.769	0.2	visual standard stimulus presentation	0.0	standard	n/a
253.169	0.582	behavioral response time following visual oddball stimulus onset	1.0	target	n/a
253.169	0.2	visual oddball stimulus presentation	1.0	target	n/a
255.567	0.2	visual standard stimulus presentation	0.0	standard	n/a
258.563	0.43	behavioral response time following visual oddball stimulus onset	1.0	target	n/a
258.563	0.2	visual oddball stimulus presentation	1.0	target	n/a
260.962	0.2	visual standard stimulus presentation	0.0	standard	n/a
263.361	0.2	visual standard stimulus presentation	0.0	standard	n/a
266.158	0.2	visual standard stimulus presentation	0.0	standard	n/a
268.358	0.2	visual standard stimulus presentation	0.0	standard	n/a
270.956	0.2	visual standard stimulus presentation	0.0	standard	n/a
273.554	0.2	visual standard stimulus presentation	0.0	standard	n/a
276.548	0.2	visual standard stimulus presentation	0.0	standard	n/a
278.948	0.2	visual standard stimulus presentation	0.0	standard	n/a
281.545	0.2	visual standard stimulus presentation	0.0	standard	n/a
284.342	0.2	visual standard stimulus presentation	0.0	standard	n/a
287.138	0.2	visual standard stimulus presentation	0.0	standard	n/a
290.133	0.2	visual standard stimulus presentation	0.0	standard	n/a
292.93	0.2	visual standard stimulus presentation	0.0	standard	n/a
295.13	0.2	visual standard stimulus presentation	0.0	standard	n/a
297.728	0.2	visual standard stimulus presentation	0.0	standard	n/a
300.524	0.398	behavioral response time following visual oddball stimulus onset	1.0	target	n/a
300.524	0.2	visual oddball stimulus presentation	1.0	target	n/a
303.518	0.2	visual standard stimulus presentation	0.0	standard	n/a
306.117	0.2	visual oddball stimulus presentation	1.0	target	n/a
306.117	0.417	behavioral response time following visual oddball stimulus onset	1.0	target	n/a
308.118	0.2	visual standard stimulus presentation	0.0	standard	n/a
310.916	0.2	visual standard stimulus presentation	0.0	standard	n/a
312.918	0.2	visual standard stimulus presentation	0.0	standard	n/a
315.118	0.2	visual standard stimulus presentation	0.0	standard	n/a
n/a	n/a	n/a	4.873	0	standard
n/a	n/a	n/a	7.884	0	standard
