onset	duration	trial_type	TrialType	Stimulus	SSD	Response	response_time	CorrectGo	SuccStop
0.000	1.500	failed stop-critical	1	1	0.150	49	0.395	1	0
3.000	1.500	go-noncritical	0	0	0.000	50	0.432	1	0
5.125	1.500	go-noncritical	0	0	0.000	50	0.396	1	0
7.375	1.500	go-noncritical	0	0	0.000	50	0.338	1	0
9.625	1.500	go-critical	0	1	0.000	49	0.472	1	0
11.750	1.500	go-critical	0	1	0.000	49	0.371	1	0
14.000	1.500	go-critical	0	1	0.000	49	0.353	1	0
17.500	1.500	go-noncritical	0	0	0.000	50	0.309	1	0
19.750	1.500	failed stop-critical	1	1	0.100	50	0.235	0	0
24.000	1.500	go-critical	0	1	0.000	49	0.465	1	0
27.125	1.500	go-noncritical	0	0	0.000	50	0.380	1	0
29.750	1.500	failed stop-noncritical	1	0	0.200	50	0.515	1	0
32.375	1.500	go-critical	0	1	0.000	49	0.505	1	0
35.000	1.500	go-critical	0	1	0.000	49	0.360	1	0
37.250	1.500	go-critical	0	1	0.000	49	0.382	1	0
41.625	1.500	go-critical	0	1	0.000	49	0.448	1	0
43.625	1.500	go-noncritical	0	0	0.000	50	0.480	1	0
45.875	1.500	failed stop-noncritical	1	0	0.250	50	0.406	1	0
49.875	1.500	failed stop-noncritical	1	0	0.150	50	0.493	1	0
53.125	1.500	failed stop-critical	1	1	0.250	49	0.603	1	0
55.375	1.500	go-critical	0	1	0.000	49	0.682	1	0
57.750	1.500	go-noncritical	0	0	0.000	50	0.458	1	0
60.375	1.500	go-critical	0	1	0.000	49	0.474	1	0
63.125	1.500	go-noncritical	0	0	0.000	50	0.435	1	0
65.125	1.500	failed stop-noncritical	1	0	0.100	50	0.539	1	0
67.125	1.500	go-critical	0	1	0.000	49	0.715	1	0
69.750	1.500	go-noncritical	0	0	0.000	50	0.411	1	0
74.000	1.500	successful stop-critical	1	1	0.200	0	0.000	0	1
76.000	1.500	go-noncritical	0	0	0.000	50	0.432	1	0
79.125	1.500	go-noncritical	0	0	0.000	50	0.443	1	0
82.000	1.500	go-noncritical	0	0	0.000	50	0.472	1	0
84.125	1.500	go-critical	0	1	0.000	49	0.675	1	0
86.750	1.500	go-noncritical	0	0	0.000	50	0.413	1	0
88.750	1.500	go-critical	0	1	0.000	49	0.642	1	0
90.875	1.500	go-critical	0	1	0.000	49	0.741	1	0
92.875	1.500	go-noncritical	0	0	0.000	50	0.477	1	0
94.875	1.500	go-critical	0	1	0.000	49	0.357	1	0
97.750	1.500	go-noncritical	0	0	0.000	50	0.403	1	0
101.500	1.500	go-noncritical	0	0	0.000	50	0.436	1	0
104.000	1.500	go-noncritical	0	0	0.000	50	0.425	1	0
108.875	1.500	go-critical	0	1	0.000	49	0.589	1	0
111.125	1.500	go-critical	0	1	0.000	49	0.691	1	0
113.250	1.500	failed stop-noncritical	1	0	0.050	50	0.495	1	0
116.250	1.500	go-noncritical	0	0	0.000	50	0.518	1	0
120.000	1.500	successful stop-critical	1	1	0.200	0	0.000	0	1
122.000	1.500	go-noncritical	0	0	0.000	50	0.433	1	0
124.125	1.500	go-critical	0	1	0.000	49	0.804	1	0
127.000	1.500	go-critical	0	1	0.000	49	0.697	1	0
129.750	1.500	go-critical	0	1	0.000	49	0.586	1	0
132.125	1.500	go-noncritical	0	0	0.000	50	0.443	1	0
134.625	1.500	successful stop-critical	1	1	0.050	0	0.000	0	1
138.375	1.500	go-noncritical	0	0	0.000	50	0.394	1	0
141.000	1.500	failed stop-noncritical	1	0	0.250	50	0.409	1	0
143.375	1.500	go-noncritical	0	0	0.000	50	0.442	1	0
146.125	1.500	failed stop-noncritical	1	0	0.200	50	0.348	1	0
148.250	1.500	go-critical	0	1	0.000	49	0.647	1	0
152.250	1.500	go-critical	0	1	0.000	49	0.591	1	0
155.500	1.500	go-critical	0	1	0.000	49	0.629	1	0
157.625	1.500	go-critical	0	1	0.000	49	0.680	1	0
160.000	1.500	go-noncritical	0	0	0.000	50	0.385	1	0
162.000	1.500	successful stop-critical	1	1	0.250	0	0.000	0	1
164.000	1.500	successful stop-critical	1	1	0.100	0	0.000	0	1
167.750	1.500	go-noncritical	0	0	0.000	50	0.363	1	0
171.125	1.500	failed stop-noncritical	1	0	0.100	50	0.476	1	0
173.500	1.500	failed stop-noncritical	1	0	0.250	50	0.344	1	0
176.625	1.500	go-critical	0	1	0.000	49	0.824	1	0
178.625	1.500	failed stop-noncritical	1	0	0.100	50	0.456	1	0
181.000	1.500	go-critical	0	1	0.000	49	0.585	1	0
183.000	1.500	go-noncritical	0	0	0.000	50	0.489	1	0
185.125	1.500	go-noncritical	0	0	0.000	50	0.356	1	0
187.500	1.500	successful stop-critical	1	1	0.150	0	0.000	0	1
189.750	1.500	go-noncritical	0	0	0.000	50	0.483	1	0
193.000	1.500	go-critical	0	1	0.000	49	0.713	1	0
197.125	1.500	go-noncritical	0	0	0.000	50	0.420	1	0
200.000	1.500	go-noncritical	0	0	0.000	50	0.425	1	0
202.625	1.500	go-noncritical	0	0	0.000	50	0.352	1	0
205.500	1.500	go-critical	0	1	0.000	49	0.541	1	0
210.375	1.500	failed stop-critical	1	1	0.250	49	0.450	1	0
212.375	1.500	go-critical	0	1	0.000	49	0.642	1	0
217.375	1.500	failed stop-noncritical	1	0	0.300	50	0.386	1	0
220.625	1.500	failed stop-critical	1	1	0.300	49	0.536	1	0
223.750	1.500	go-critical	0	1	0.000	49	0.555	1	0
228.000	1.500	go-noncritical	0	0	0.000	50	0.345	1	0
230.250	1.500	go-critical	0	1	0.000	49	0.615	1	0
232.375	1.500	go-noncritical	0	0	0.000	50	0.378	1	0
234.500	1.500	go-noncritical	0	0	0.000	50	0.429	1	0
236.625	1.500	go-critical	0	1	0.000	49	0.624	1	0
238.750	1.500	go-noncritical	0	0	0.000	50	0.323	1	0
241.250	1.500	go-critical	0	1	0.000	49	0.607	1	0
244.875	1.500	successful stop-critical	1	1	0.100	0	0.000	0	1
247.750	1.500	go-noncritical	0	0	0.000	50	0.555	1	0
251.125	1.500	go-noncritical	0	0	0.000	50	0.372	1	0
253.500	1.500	go-critical	0	1	0.000	49	0.693	1	0
255.625	1.500	failed stop-noncritical	1	0	0.150	50	0.762	1	0
260.000	1.500	go-critical	0	1	0.000	49	0.841	1	0
264.000	1.500	go-critical	0	1	0.000	49	0.746	1	0
266.375	1.500	go-critical	0	1	0.000	49	0.925	1	0
269.500	1.500	go-critical	0	1	0.000	49	0.725	1	0
272.375	1.500	go-critical	0	1	0.000	49	0.426	1	0
274.375	1.500	failed stop-critical	1	1	0.150	49	0.370	1	0
277.125	1.500	go-critical	0	1	0.000	49	0.556	1	0
279.875	1.500	go-noncritical	0	0	0.000	50	0.469	1	0
282.375	1.500	go-critical	0	1	0.000	49	0.618	1	0
284.375	1.500	go-noncritical	0	0	0.000	50	0.370	1	0
286.500	1.500	go-noncritical	0	0	0.000	50	0.477	1	0
289.125	1.500	go-noncritical	0	0	0.000	50	0.380	1	0
292.250	1.500	go-critical	0	1	0.000	49	0.615	1	0
294.500	1.500	go-noncritical	0	0	0.000	50	0.493	1	0
296.750	1.500	failed stop-noncritical	1	0	0.150	50	0.587	1	0
299.500	1.500	successful stop-critical	1	1	0.200	0	0.000	0	1
302.125	1.500	go-noncritical	0	0	0.000	50	0.404	1	0
307.125	1.500	go-noncritical	0	0	0.000	50	0.420	1	0
310.500	1.500	go-noncritical	0	0	0.000	50	0.357	1	0
313.000	1.500	go-noncritical	0	0	0.000	50	0.393	1	0
315.000	1.500	go-critical	0	1	0.000	49	0.809	1	0
317.250	1.500	go-noncritical	0	0	0.000	50	0.423	1	0
319.250	1.500	go-noncritical	0	0	0.000	50	0.407	1	0
321.250	1.500	go-critical	0	1	0.000	49	0.727	1	0
323.875	1.500	go-critical	0	1	0.000	49	0.461	1	0
325.875	1.500	go-noncritical	0	0	0.000	50	0.533	1	0
327.875	1.500	failed stop-noncritical	1	0	0.200	50	0.382	1	0
330.125	1.500	successful stop-critical	1	1	0.250	0	0.000	0	1
332.125	1.500	successful stop-critical	1	1	0.200	0	0.000	0	1
335.000	1.500	go-critical	0	1	0.000	49	0.745	1	0
339.125	1.500	failed stop-noncritical	1	0	0.250	50	0.524	1	0
341.875	1.500	failed stop-noncritical	1	0	0.200	50	0.445	1	0
344.000	1.500	go-critical	0	1	0.000	49	0.801	1	0
346.375	1.500	go-critical	0	1	0.000	49	0.850	1	0
