onset	duration	trial_type	TrialType	Stimulus	SSD	Response	response_time	CorrectGo	SuccStop
0.000	1.500	go-critical	0	1	0.000	49	0.464	1	0
2.125	1.500	go-critical	0	1	0.000	49	0.318	1	0
4.750	1.500	go-noncritical	0	0	0.000	50	0.312	1	0
6.750	1.500	go-critical	0	1	0.000	49	0.366	1	0
9.750	1.500	failed stop-noncritical	1	0	0.300	49	0.270	0	0
12.000	1.500	go-noncritical	0	0	0.000	50	0.323	1	0
14.625	1.500	go-critical	0	1	0.000	49	0.434	1	0
16.875	1.500	go-critical	0	1	0.000	49	0.456	1	0
19.500	1.500	failed stop-noncritical	1	0	0.100	50	0.336	1	0
23.125	1.500	successful stop-critical	1	1	0.100	0	0.000	0	1
25.500	1.500	go-noncritical	0	0	0.000	50	0.423	1	0
27.750	1.500	go-critical	0	1	0.000	49	0.437	1	0
31.875	1.500	failed stop-critical	1	1	0.300	49	0.409	1	0
35.875	1.500	successful stop-critical	1	1	0.250	0	0.000	0	1
38.875	1.500	go-critical	0	1	0.000	49	0.472	1	0
41.125	1.500	go-critical	0	1	0.000	49	0.471	1	0
43.375	1.500	go-noncritical	0	0	0.000	50	0.444	1	0
45.625	1.500	go-noncritical	0	0	0.000	50	0.370	1	0
47.750	1.500	go-noncritical	0	0	0.000	50	0.421	1	0
49.875	1.500	go-noncritical	0	0	0.000	50	0.456	1	0
52.500	1.500	go-critical	0	1	0.000	49	0.591	1	0
54.500	1.500	go-critical	0	1	0.000	49	0.504	1	0
57.125	1.500	go-critical	0	1	0.000	49	0.406	1	0
59.500	1.500	failed stop-noncritical	1	0	0.250	50	0.424	1	0
62.125	1.500	go-noncritical	0	0	0.000	50	0.351	1	0
64.875	1.500	go-critical	0	1	0.000	49	0.553	1	0
66.875	1.500	go-noncritical	0	0	0.000	50	0.385	1	0
69.125	1.500	go-noncritical	0	0	0.000	50	0.462	1	0
72.500	1.500	failed stop-noncritical	1	0	0.250	50	0.432	1	0
75.250	1.500	successful stop-critical	1	1	0.250	0	0.000	0	1
79.625	1.500	go-noncritical	0	0	0.000	50	0.346	1	0
84.000	1.500	go-noncritical	0	0	0.000	50	0.419	1	0
86.250	1.500	go-critical	0	1	0.000	49	0.548	1	0
89.125	1.500	go-critical	0	1	0.000	49	0.527	1	0
91.500	1.500	successful stop-critical	1	1	0.150	0	0.000	0	1
93.750	1.500	go-critical	0	1	0.000	49	0.405	1	0
95.750	1.500	go-critical	0	1	0.000	49	0.669	1	0
97.750	1.500	go-critical	0	1	0.000	49	0.470	1	0
99.750	1.500	go-noncritical	0	0	0.000	50	0.501	1	0
102.500	1.500	successful stop-critical	1	1	0.300	0	0.000	0	1
104.500	1.500	failed stop-noncritical	1	0	0.300	50	0.416	1	0
106.875	1.500	successful stop-critical	1	1	0.250	0	0.000	0	1
110.875	1.500	go-noncritical	0	0	0.000	50	0.376	1	0
113.000	1.500	go-noncritical	0	0	0.000	50	0.331	1	0
116.125	1.500	failed stop-noncritical	1	0	0.150	50	0.367	1	0
118.625	1.500	go-critical	0	1	0.000	49	0.771	1	0
121.500	1.500	failed stop-noncritical	1	0	0.300	50	0.415	1	0
125.875	1.500	go-noncritical	0	0	0.000	50	0.344	1	0
128.500	1.500	go-noncritical	0	0	0.000	50	0.527	1	0
130.875	1.500	failed stop-noncritical	1	0	0.250	50	0.328	1	0
133.875	1.500	go-noncritical	0	0	0.000	50	0.288	1	0
136.000	1.500	go-critical	0	1	0.000	49	0.603	1	0
140.875	1.500	go-critical	0	1	0.000	49	0.560	1	0
143.625	1.500	go-critical	0	1	0.000	49	0.394	1	0
145.875	1.500	go-noncritical	0	0	0.000	50	0.448	1	0
149.625	1.500	go-critical	0	1	0.000	49	0.458	1	0
151.625	1.500	go-noncritical	0	0	0.000	50	0.419	1	0
154.500	1.500	go-noncritical	0	0	0.000	50	0.399	1	0
157.250	1.500	go-critical	0	1	0.000	49	0.337	1	0
161.375	1.500	go-noncritical	0	0	0.000	50	0.404	1	0
163.500	1.500	go-noncritical	0	0	0.000	50	0.407	1	0
166.375	1.500	failed stop-critical	1	1	0.300	49	0.364	1	0
168.500	1.500	go-noncritical	0	0	0.000	50	0.375	1	0
170.750	1.500	go-critical	0	1	0.000	49	0.494	1	0
172.750	1.500	failed stop-noncritical	1	0	0.300	50	0.344	1	0
175.750	1.500	go-critical	0	1	0.000	49	0.397	1	0
178.000	1.500	go-noncritical	0	0	0.000	50	0.307	1	0
182.625	1.500	go-critical	0	1	0.000	49	0.538	1	0
185.750	1.500	go-critical	0	1	0.000	49	0.365	1	0
187.750	1.500	go-critical	0	1	0.000	49	0.341	1	0
190.125	1.500	failed stop-noncritical	1	0	0.250	50	0.391	1	0
193.000	1.500	go-critical	0	1	0.000	49	0.379	1	0
195.125	1.500	failed stop-noncritical	1	0	0.350	50	0.383	1	0
198.375	1.500	go-noncritical	0	0	0.000	50	0.421	1	0
200.500	1.500	go-critical	0	1	0.000	49	0.447	1	0
202.875	1.500	go-noncritical	0	0	0.000	50	0.400	1	0
205.750	1.500	go-noncritical	0	0	0.000	50	0.734	1	0
209.125	1.500	failed stop-noncritical	1	0	0.200	50	0.615	1	0
211.125	1.500	successful stop-critical	1	1	0.250	0	0.000	0	1
214.875	1.500	go-critical	0	1	0.000	49	0.624	1	0
217.125	1.500	go-noncritical	0	0	0.000	50	0.414	1	0
219.500	1.500	go-critical	0	1	0.000	49	0.495	1	0
222.500	1.500	go-noncritical	0	0	0.000	50	0.359	1	0
225.000	1.500	go-noncritical	0	0	0.000	50	0.467	1	0
227.875	1.500	go-critical	0	1	0.000	49	0.601	1	0
230.125	1.500	failed stop-critical	1	1	0.350	49	0.359	1	0
232.375	1.500	failed stop-critical	1	1	0.300	49	0.429	1	0
235.125	1.500	successful stop-critical	1	1	0.200	0	0.000	0	1
237.125	1.500	go-noncritical	0	0	0.000	50	0.374	1	0
239.250	1.500	go-critical	0	1	0.000	49	0.562	1	0
242.250	1.500	go-noncritical	0	0	0.000	50	0.386	1	0
244.625	1.500	go-noncritical	0	0	0.000	50	0.378	1	0
247.125	1.500	go-critical	0	1	0.000	49	0.438	1	0
250.250	1.500	go-critical	0	1	0.000	49	0.482	1	0
252.625	1.500	go-noncritical	0	0	0.000	50	0.370	1	0
255.000	1.500	go-noncritical	0	0	0.000	50	0.299	1	0
257.250	1.500	junk	0	1	0.000	50	0.340	0	0
260.375	1.500	go-critical	0	1	0.000	49	0.397	1	0
262.625	1.500	go-noncritical	0	0	0.000	50	0.410	1	0
265.250	1.500	failed stop-noncritical	1	0	0.300	50	0.426	1	0
268.875	1.500	go-critical	0	1	0.000	49	0.585	1	0
272.250	1.500	go-critical	0	1	0.000	49	0.361	1	0
275.375	1.500	successful stop-critical	1	1	0.300	0	0.000	0	1
278.500	1.500	go-noncritical	0	0	0.000	50	0.552	1	0
280.625	1.500	go-noncritical	0	0	0.000	50	0.378	1	0
283.000	1.500	go-noncritical	0	0	0.000	50	0.595	1	0
288.375	1.500	go-noncritical	0	0	0.000	50	0.500	1	0
290.375	1.500	go-noncritical	0	0	0.000	50	0.485	1	0
292.500	1.500	go-critical	0	1	0.000	49	0.512	1	0
294.500	1.500	failed stop-critical	1	1	0.300	49	0.352	1	0
298.500	1.500	go-critical	0	1	0.000	49	0.479	1	0
300.500	1.500	go-noncritical	0	0	0.000	50	0.632	1	0
303.125	1.500	go-noncritical	0	0	0.000	50	0.398	1	0
305.875	1.500	go-critical	0	1	0.000	49	0.505	1	0
308.000	1.500	successful stop-critical	1	1	0.250	0	0.000	0	1
310.250	1.500	go-critical	0	1	0.000	49	0.730	1	0
312.750	1.500	go-critical	0	1	0.000	49	0.421	1	0
315.375	1.500	failed stop-noncritical	1	0	0.250	50	0.517	1	0
317.750	1.500	go-noncritical	0	0	0.000	50	0.453	1	0
320.125	1.500	go-critical	0	1	0.000	49	0.503	1	0
323.500	1.500	go-critical	0	1	0.000	49	0.496	1	0
325.750	1.500	go-noncritical	0	0	0.000	50	0.349	1	0
329.000	1.500	go-critical	0	1	0.000	49	0.387	1	0
331.125	1.500	go-noncritical	0	0	0.000	50	0.487	1	0
333.375	1.500	failed stop-critical	1	1	0.250	49	0.349	1	0
337.250	1.500	failed stop-noncritical	1	0	0.300	50	0.378	1	0
340.875	1.500	junk	0	0	0.000	0	0.000	0	0
343.375	1.500	failed stop-noncritical	1	0	0.250	50	0.461	1	0
