onset	duration	trial_number	event_type	executed_movement	correct_movement	shown_stimulus	included_trial	reason_for_exclusion
11.9799999999996	23.02	1	stimulus	n/a	n/a	white X	0	test trial
35	9.50786670000161	1	stimulus	n/a	n/a	red X	0	test trial
36.0099999999984	0	1	foot step	2	2	n/a	0	test trial
36.630000000001	0	1	foot step	1	1	n/a	0	test trial
37.2299999999996	0	1	foot step	2	2	n/a	0	test trial
37.9000000000015	0	1	foot step	3	3	n/a	0	test trial
38.5600000000013	0	1	foot step	2	2	n/a	0	test trial
39.2000000000007	0	1	foot step	1	1	n/a	0	test trial
39.8499999999985	0	1	foot step	3	3	n/a	0	test trial
40.5400000000009	0	1	foot step	2	2	n/a	0	test trial
41.130000000001	0	1	foot step	4	4	n/a	0	test trial
41.7799999999988	0	1	foot step	2	2	n/a	0	test trial
42.4099999999999	0	1	foot step	4	4	n/a	0	test trial
43.0400000000009	0	1	foot step	1	1	n/a	0	test trial
44.5400000000009	5	1	stimulus	n/a	n/a	white X	0	test trial
53.0200000000004	21	2	stimulus	n/a	n/a	white X	1	n/a
73.9941753999992	9.5097695000004	2	stimulus	n/a	n/a	red X	1	n/a
74.9341753999979	0	2	foot step	2	2	n/a	1	n/a
75.5341754000001	0	2	foot step	1	1	n/a	1	n/a
76.2341754000008	0	2	foot step	2	2	n/a	1	n/a
76.7841754000001	0	2	foot step	3	3	n/a	1	n/a
77.4241753999995	0	2	foot step	2	2	n/a	1	n/a
78.0041753999976	0	2	foot step	1	1	n/a	1	n/a
78.5941753999978	0	2	foot step	3	3	n/a	1	n/a
79.2541753999976	0	2	foot step	2	2	n/a	1	n/a
79.8441753999978	0	2	foot step	4	4	n/a	1	n/a
80.4441753999999	0	2	foot step	2	2	n/a	1	n/a
81.0641753999989	0	2	foot step	4	4	n/a	1	n/a
81.6341753999986	0	2	foot step	1	1	n/a	1	n/a
83.5400000000009	5	2	stimulus	n/a	n/a	white X	1	n/a
88.9599999999991	23	3	stimulus	n/a	n/a	white X	1	n/a
111.929516799999	9.50963340000089	3	stimulus	n/a	n/a	red X	1	n/a
112.8795168	0	3	foot step	2	2	n/a	1	n/a
113.499516799999	0	3	foot step	1	1	n/a	1	n/a
114.159516799999	0	3	foot step	2	2	n/a	1	n/a
114.749516799999	0	3	foot step	3	3	n/a	1	n/a
115.429516799999	0	3	foot step	2	2	n/a	1	n/a
116.0395168	0	3	foot step	1	1	n/a	1	n/a
116.6495168	0	3	foot step	3	3	n/a	1	n/a
117.349516799997	0	3	foot step	2	2	n/a	1	n/a
117.959516799998	0	3	foot step	4	4	n/a	1	n/a
118.5395168	0	3	foot step	2	2	n/a	1	n/a
119.1495168	0	3	foot step	1	4	n/a	1	n/a
121.48	5	3	stimulus	n/a	n/a	white X	1	n/a
127.360000000001	22	4	stimulus	n/a	n/a	white X	1	n/a
149.329457700002	9.50813279999784	4	stimulus	n/a	n/a	red X	1	n/a
150.329457700002	0	4	foot step	2	2	n/a	1	n/a
150.889457700003	0	4	foot step	1	1	n/a	1	n/a
151.4994577	0	4	foot step	2	2	n/a	1	n/a
152.1094577	0	4	foot step	3	3	n/a	1	n/a
152.7694577	0	4	foot step	2	2	n/a	1	n/a
153.399457700001	0	4	foot step	1	1	n/a	1	n/a
154.079457700002	0	4	foot step	3	3	n/a	1	n/a
154.7494577	0	4	foot step	2	2	n/a	1	n/a
155.389457700003	0	4	foot step	4	4	n/a	1	n/a
156.049457700003	0	4	foot step	2	2	n/a	1	n/a
156.669457700002	0	4	foot step	4	4	n/a	1	n/a
157.309457700001	0	4	foot step	1	1	n/a	1	n/a
158.880000000001	5	4	stimulus	n/a	n/a	white X	1	n/a
164.32	22	5	stimulus	n/a	n/a	white X	1	n/a
186.294276600001	9.50971749999735	5	stimulus	n/a	n/a	red X	1	n/a
187.254276600001	0	5	foot step	2	2	n/a	1	n/a
187.8942766	0	5	foot step	1	1	n/a	1	n/a
188.534276600003	0	5	foot step	2	2	n/a	1	n/a
189.194276600003	0	5	foot step	3	3	n/a	1	n/a
189.854276600003	0	5	foot step	2	2	n/a	1	n/a
190.424276600002	0	5	foot step	1	1	n/a	1	n/a
191.004276600001	0	5	foot step	3	3	n/a	1	n/a
191.6642766	0	5	foot step	2	2	n/a	1	n/a
192.314276600002	0	5	foot step	4	4	n/a	1	n/a
192.944276600003	0	5	foot step	2	2	n/a	1	n/a
193.564276600002	0	5	foot step	4	4	n/a	1	n/a
194.134276600002	0	5	foot step	1	1	n/a	1	n/a
195.84	5	5	stimulus	n/a	n/a	white X	1	n/a
201.400000000001	23.02	6	stimulus	n/a	n/a	white X	1	n/a
224.379919499999	9.50785530000212	6	stimulus	n/a	n/a	red X	1	n/a
225.4199195	0	6	foot step	2	2	n/a	1	n/a
226.0599195	0	6	foot step	1	1	n/a	1	n/a
226.719919499999	0	6	foot step	2	2	n/a	1	n/a
227.3999195	0	6	foot step	3	3	n/a	1	n/a
228.0599195	0	6	foot step	2	2	n/a	1	n/a
228.6699195	0	6	foot step	1	1	n/a	1	n/a
229.289919499999	0	6	foot step	3	3	n/a	1	n/a
229.969919499999	0	6	foot step	2	2	n/a	1	n/a
230.5799195	0	6	foot step	4	4	n/a	1	n/a
231.249919499998	0	6	foot step	2	2	n/a	1	n/a
231.839919499998	0	6	foot step	4	4	n/a	1	n/a
232.4199195	0	6	foot step	1	1	n/a	1	n/a
233.919999999998	5	6	stimulus	n/a	n/a	white X	1	n/a
239.759999999998	22	7	stimulus	n/a	n/a	white X	1	n/a
261.731213400002	9.50753899999836	7	stimulus	n/a	n/a	red X	1	n/a
262.761213400001	0	7	foot step	2	2	n/a	1	n/a
263.371213400002	0	7	foot step	1	1	n/a	1	n/a
264.021213400003	0	7	foot step	2	2	n/a	1	n/a
264.6512134	0	7	foot step	3	3	n/a	1	n/a
265.301213400002	0	7	foot step	2	2	n/a	1	n/a
265.941213400001	0	7	foot step	1	1	n/a	1	n/a
266.541213400003	0	7	foot step	3	3	n/a	1	n/a
267.241213400001	0	7	foot step	2	2	n/a	1	n/a
267.831213400001	0	7	foot step	4	4	n/a	1	n/a
268.491213400001	0	7	foot step	2	2	n/a	1	n/a
269.1512134	0	7	foot step	4	4	n/a	1	n/a
269.771213400003	0	7	foot step	1	1	n/a	1	n/a
271.279999999999	5	7	stimulus	n/a	n/a	white X	1	n/a
276.779999999999	22.02	8	stimulus	n/a	n/a	white X	1	n/a
298.7725842	9.50730380000095	8	stimulus	n/a	n/a	red X	1	n/a
299.7925842	0	8	foot step	2	2	n/a	1	n/a
300.4525842	0	8	foot step	1	1	n/a	1	n/a
301.122584199999	0	8	foot step	2	2	n/a	1	n/a
301.7725842	0	8	foot step	3	3	n/a	1	n/a
302.442584199998	0	8	foot step	2	2	n/a	1	n/a
303.062584200001	0	8	foot step	1	1	n/a	1	n/a
303.7025842	0	8	foot step	3	3	n/a	1	n/a
304.3425842	0	8	foot step	2	2	n/a	1	n/a
304.982584199999	0	8	foot step	4	4	n/a	1	n/a
305.642584199999	0	8	foot step	2	2	n/a	1	n/a
306.2925842	0	8	foot step	4	4	n/a	1	n/a
306.9325842	0	8	foot step	1	1	n/a	1	n/a
308.32	5	8	stimulus	n/a	n/a	white X	1	n/a
313.919999999998	24	9	stimulus	n/a	n/a	white X	1	n/a
337.898861500002	9.51682239999718	9	stimulus	n/a	n/a	red X	1	n/a
338.878861500001	0	9	foot step	2	2	n/a	1	n/a
339.4988615	0	9	foot step	1	1	n/a	1	n/a
340.1588615	0	9	foot step	2	2	n/a	1	n/a
340.8188615	0	9	foot step	3	3	n/a	1	n/a
341.528861500003	0	9	foot step	2	2	n/a	1	n/a
342.128861500001	0	9	foot step	1	1	n/a	1	n/a
342.7488615	0	9	foot step	3	3	n/a	1	n/a
343.4088615	0	9	foot step	2	2	n/a	1	n/a
344.038861500001	0	9	foot step	4	4	n/a	1	n/a
344.698861500001	0	9	foot step	2	2	n/a	1	n/a
345.298861500003	0	9	foot step	4	4	n/a	1	n/a
345.898861500002	0	9	foot step	1	1	n/a	1	n/a
347.439999999999	5	9	stimulus	n/a	n/a	white X	1	n/a
352.900000000001	22.02	10	stimulus	n/a	n/a	white X	1	n/a
374.8879499	9.50697130000117	10	stimulus	n/a	n/a	red X	1	n/a
375.8879499	0	10	foot step	2	2	n/a	1	n/a
376.547949899999	0	10	foot step	1	1	n/a	1	n/a
377.207949899999	0	10	foot step	2	2	n/a	1	n/a
377.867949899999	0	10	foot step	3	3	n/a	1	n/a
378.507949899998	0	10	foot step	2	2	n/a	1	n/a
379.127949900001	0	10	foot step	1	1	n/a	1	n/a
379.7479499	0	10	foot step	3	3	n/a	1	n/a
380.437949899999	0	10	foot step	2	2	n/a	1	n/a
381.0679499	0	10	foot step	4	4	n/a	1	n/a
381.7279499	0	10	foot step	2	2	n/a	1	n/a
382.3379499	0	10	foot step	4	4	n/a	1	n/a
382.937949899999	0	10	foot step	1	1	n/a	1	n/a
384.419999999998	5	10	stimulus	n/a	n/a	white X	1	n/a
390.279999999999	25.02	11	stimulus	n/a	n/a	white X	1	n/a
415.2673077	9.50809389999995	11	stimulus	n/a	n/a	red X	1	n/a
416.5373077	0	11	foot step	2	2	n/a	1	n/a
417.1773077	0	11	foot step	1	1	n/a	1	n/a
417.797307699999	0	11	foot step	2	2	n/a	1	n/a
418.487307700001	0	11	foot step	3	3	n/a	1	n/a
419.157307699999	0	11	foot step	2	2	n/a	1	n/a
419.777307699998	0	11	foot step	1	1	n/a	1	n/a
420.407307699999	0	11	foot step	3	3	n/a	1	n/a
421.097307700002	0	11	foot step	2	2	n/a	1	n/a
421.737307700001	0	11	foot step	4	4	n/a	1	n/a
422.417307700001	0	11	foot step	2	2	n/a	1	n/a
423.067307699999	0	11	foot step	4	4	n/a	1	n/a
423.6973077	0	11	foot step	1	1	n/a	1	n/a
424.799999999999	5	11	stimulus	n/a	n/a	white X	1	n/a
