onset	duration	trial_number	event_type	executed_movement	correct_movement	shown_stimulus	included_trial	reason_for_exclusion
9.97999999999956	25.02	1	stimulus	n/a	n/a	white X	0	test trial
35	9.50346519999948	1	stimulus	n/a	n/a	red X	0	test trial
35.4168073000001	0	1	finger press	2	2	n/a	0	test trial
36.0737297999985	0	1	finger press	1	1	n/a	0	test trial
36.650815099998	0	1	finger press	2	2	n/a	0	test trial
37.2607048999998	0	1	finger press	3	3	n/a	0	test trial
37.8904898000001	0	1	finger press	2	2	n/a	0	test trial
38.5380732999984	0	1	finger press	1	1	n/a	0	test trial
39.1865382999968	0	1	finger press	3	3	n/a	0	test trial
39.8493382999986	0	1	finger press	2	2	n/a	0	test trial
40.4875362999992	0	1	finger press	4	4	n/a	0	test trial
41.1152773999966	0	1	finger press	2	2	n/a	0	test trial
41.7357630999977	0	1	finger press	4	4	n/a	0	test trial
42.3596943999983	0	1	finger press	1	1	n/a	0	test trial
44.5	5	1	stimulus	n/a	n/a	white X	0	test trial
50.5800000000017	24.02	2	stimulus	n/a	n/a	white X	1	n/a
74.5987100999992	9.50384539999868	2	stimulus	n/a	n/a	red X	1	n/a
75.0436102999993	0	2	finger press	2	2	n/a	1	n/a
75.7214329999988	0	2	finger press	1	1	n/a	1	n/a
76.510707399997	0	2	finger press	2	2	n/a	1	n/a
77.1710624999978	0	2	finger press	3	3	n/a	1	n/a
77.8000725999991	0	2	finger press	2	2	n/a	1	n/a
78.4388158999973	0	2	finger press	1	1	n/a	1	n/a
79.1035443999972	0	2	finger press	3	3	n/a	1	n/a
79.7865246999972	0	2	finger press	2	2	n/a	1	n/a
80.4319583999968	0	2	finger press	4	4	n/a	1	n/a
81.0760699999992	0	2	finger press	2	2	n/a	1	n/a
81.7548014999993	0	2	finger press	4	4	n/a	1	n/a
82.393912399999	0	2	finger press	1	1	n/a	1	n/a
84.0999999999985	5	2	stimulus	n/a	n/a	white X	1	n/a
90.2599999999984	22	3	stimulus	n/a	n/a	white X	1	n/a
112.272735299997	9.50303300000087	3	stimulus	n/a	n/a	red X	1	n/a
112.848313699997	0	3	finger press	2	2	n/a	1	n/a
113.498611999999	0	3	finger press	1	1	n/a	1	n/a
114.192631799997	0	3	finger press	2	2	n/a	1	n/a
114.864835599998	0	3	finger press	3	3	n/a	1	n/a
115.514067599997	0	3	finger press	2	2	n/a	1	n/a
116.1781825	0	3	finger press	1	1	n/a	1	n/a
116.842380599999	0	3	finger press	3	3	n/a	1	n/a
117.5251536	0	3	finger press	2	2	n/a	1	n/a
118.200876199997	0	3	finger press	4	4	n/a	1	n/a
118.8736082	0	3	finger press	2	2	n/a	1	n/a
119.579065299997	0	3	finger press	4	4	n/a	1	n/a
120.246713599998	0	3	finger press	1	1	n/a	1	n/a
121.759999999998	5	3	stimulus	n/a	n/a	white X	1	n/a
127.740000000002	23	4	stimulus	n/a	n/a	white X	1	n/a
150.745542099998	9.50328570000056	4	stimulus	n/a	n/a	red X	1	n/a
151.4903734	0	4	finger press	2	2	n/a	1	n/a
152.183077199999	0	4	finger press	1	1	n/a	1	n/a
152.841054799999	0	4	finger press	2	2	n/a	1	n/a
153.523384	0	4	finger press	3	3	n/a	1	n/a
154.145058299997	0	4	finger press	2	2	n/a	1	n/a
154.792554799998	0	4	finger press	1	1	n/a	1	n/a
155.424791599999	0	4	finger press	3	3	n/a	1	n/a
156.073215299999	0	4	finger press	2	2	n/a	1	n/a
156.727699299998	0	4	finger press	4	4	n/a	1	n/a
157.330257199999	0	4	finger press	2	2	n/a	1	n/a
158.008027099997	0	4	finger press	4	4	n/a	1	n/a
158.6411166	0	4	finger press	1	1	n/a	1	n/a
160.240000000002	5	4	stimulus	n/a	n/a	white X	1	n/a
166.759999999998	21.02	5	stimulus	n/a	n/a	white X	1	n/a
187.7839059	9.50406829999702	5	stimulus	n/a	n/a	red X	1	n/a
188.650924199999	0	5	finger press	2	2	n/a	1	n/a
189.314790799999	0	5	finger press	1	1	n/a	1	n/a
189.9583255	0	5	finger press	2	2	n/a	1	n/a
190.594643999997	0	5	finger press	3	3	n/a	1	n/a
191.266139099997	0	5	finger press	2	2	n/a	1	n/a
191.8878233	0	5	finger press	1	1	n/a	1	n/a
192.514961399997	0	5	finger press	3	3	n/a	1	n/a
193.153193099999	0	5	finger press	2	2	n/a	1	n/a
193.778088499999	0	5	finger press	4	4	n/a	1	n/a
194.436243799999	0	5	finger press	2	2	n/a	1	n/a
195.0627006	0	5	finger press	4	4	n/a	1	n/a
195.727443599997	0	5	finger press	1	1	n/a	1	n/a
197.279999999999	5	5	stimulus	n/a	n/a	white X	1	n/a
203.279999999999	25	6	stimulus	n/a	n/a	white X	1	n/a
228.287356599998	9.50280919999932	6	stimulus	n/a	n/a	red X	1	n/a
228.873159199997	0	6	finger press	2	2	n/a	1	n/a
229.482869899999	0	6	finger press	1	1	n/a	1	n/a
230.168824799999	0	6	finger press	2	2	n/a	1	n/a
230.840730399999	0	6	finger press	3	3	n/a	1	n/a
231.447489499998	0	6	finger press	2	2	n/a	1	n/a
232.054994299997	0	6	finger press	1	1	n/a	1	n/a
232.730378999997	0	6	finger press	3	3	n/a	1	n/a
233.417875299998	0	6	finger press	2	2	n/a	1	n/a
234.1064964	0	6	finger press	4	4	n/a	1	n/a
234.731701299999	0	6	finger press	2	2	n/a	1	n/a
235.400344199999	0	6	finger press	4	4	n/a	1	n/a
236.011649099997	0	6	finger press	1	1	n/a	1	n/a
237.779999999999	5	6	stimulus	n/a	n/a	white X	1	n/a
243.900000000001	25.02	7	stimulus	n/a	n/a	white X	1	n/a
268.9238109	9.50271499999872	7	stimulus	n/a	n/a	red X	1	n/a
269.343705499999	0	7	finger press	2	2	n/a	1	n/a
269.961586999998	0	7	finger press	1	1	n/a	1	n/a
270.563788399999	0	7	finger press	2	2	n/a	1	n/a
271.209212099999	0	7	finger press	3	3	n/a	1	n/a
271.836477699999	0	7	finger press	2	2	n/a	1	n/a
272.464300199998	0	7	finger press	1	1	n/a	1	n/a
273.066185199998	0	7	finger press	3	3	n/a	1	n/a
273.7305829	0	7	finger press	2	2	n/a	1	n/a
274.339248299999	0	7	finger press	4	4	n/a	1	n/a
274.918832699997	0	7	finger press	2	2	n/a	1	n/a
275.575023499998	0	7	finger press	4	4	n/a	1	n/a
276.177413199999	0	7	finger press	1	1	n/a	1	n/a
278.419999999998	5	7	stimulus	n/a	n/a	white X	1	n/a
284.240000000002	25	8	stimulus	n/a	n/a	white X	1	n/a
309.248826699997	9.50273930000185	8	stimulus	n/a	n/a	red X	1	n/a
309.800533399997	0	8	finger press	2	2	n/a	1	n/a
310.431618299997	0	8	finger press	1	1	n/a	1	n/a
311.034139299998	0	8	finger press	2	2	n/a	1	n/a
311.651553099997	0	8	finger press	3	3	n/a	1	n/a
312.267854099999	0	8	finger press	2	2	n/a	1	n/a
312.939896799999	0	8	finger press	1	1	n/a	1	n/a
313.547667499999	0	8	finger press	3	3	n/a	1	n/a
314.2008551	0	8	finger press	2	2	n/a	1	n/a
314.7962849	0	8	finger press	4	4	n/a	1	n/a
315.457928299998	0	8	finger press	2	2	n/a	1	n/a
316.098230599997	0	8	finger press	4	4	n/a	1	n/a
316.695205599997	0	8	finger press	1	1	n/a	1	n/a
318.740000000002	5	8	stimulus	n/a	n/a	white X	1	n/a
324.619999999999	22	9	stimulus	n/a	n/a	white X	1	n/a
346.628590599998	9.5046153000003	9	stimulus	n/a	n/a	red X	1	n/a
347.176819699998	0	9	finger press	2	2	n/a	1	n/a
347.8065761	0	9	finger press	1	1	n/a	1	n/a
348.453065399997	0	9	finger press	2	2	n/a	1	n/a
349.041273299998	0	9	finger press	3	3	n/a	1	n/a
349.721535999997	0	9	finger press	2	2	n/a	1	n/a
350.308004099999	0	9	finger press	1	1	n/a	1	n/a
350.923017099998	0	9	finger press	3	3	n/a	1	n/a
351.574548599998	0	9	finger press	2	2	n/a	1	n/a
352.218613199999	0	9	finger press	4	4	n/a	1	n/a
352.899565699998	0	9	finger press	2	2	n/a	1	n/a
353.615082199998	0	9	finger press	4	4	n/a	1	n/a
354.238653499997	0	9	finger press	1	1	n/a	1	n/a
356.119999999999	5	9	stimulus	n/a	n/a	white X	1	n/a
361.900000000001	23.02	10	stimulus	n/a	n/a	white X	0	erroneous trial
384.9245156	17.8896513	10	stimulus	n/a	n/a	red X	0	erroneous trial
385.378663599997	0	10	finger press	2	2	n/a	0	erroneous trial
386.058848699999	0	10	finger press	1	1	n/a	0	erroneous trial
386.688654499998	0	10	finger press	2	2	n/a	0	erroneous trial
387.4149019	0	10	finger press	3	3	n/a	0	erroneous trial
388.058524499997	0	10	finger press	2	2	n/a	0	erroneous trial
388.720788999999	0	10	finger press	2	1	n/a	0	erroneous trial
389.384216299997	0	10	finger press	1	3	n/a	0	erroneous trial
389.9618782	0	10	finger press	4	2	n/a	0	erroneous trial
390.584652799997	0	10	finger press	2	4	n/a	0	erroneous trial
391.226715199999	0	10	finger press	4	2	n/a	0	erroneous trial
391.866340199998	0	10	finger press	1	4	n/a	0	erroneous trial
402.799999999999	5	10	stimulus	n/a	n/a	white X	0	erroneous trial
402.810042099998	0	10	finger press	2	1	n/a	0	erroneous trial
408.599999999999	21.02	11	stimulus	n/a	n/a	white X	1	n/a
429.624105499999	9.50250229999801	11	stimulus	n/a	n/a	red X	1	n/a
430.184832299998	0	11	finger press	2	2	n/a	1	n/a
430.791908499999	0	11	finger press	1	1	n/a	1	n/a
431.386367699997	0	11	finger press	2	2	n/a	1	n/a
431.979451899999	0	11	finger press	3	3	n/a	1	n/a
432.559202299999	0	11	finger press	2	2	n/a	1	n/a
433.2071497	0	11	finger press	1	1	n/a	1	n/a
433.883024199997	0	11	finger press	3	3	n/a	1	n/a
434.527629099997	0	11	finger press	2	2	n/a	1	n/a
435.136853799999	0	11	finger press	4	4	n/a	1	n/a
435.764470299997	0	11	finger press	2	2	n/a	1	n/a
436.435983599997	0	11	finger press	4	4	n/a	1	n/a
437.063778399999	0	11	finger press	1	1	n/a	1	n/a
439.119999999999	5	11	stimulus	n/a	n/a	white X	1	n/a
