onset	duration	trial_type	TrialNum	StimCond	StimulusNum	Response	RT	Correct
0.122	2.0	classification-probabilistic	1.0	1.0	10.0	L	1.425	1.0
5.3165	2.0	classification-probabilistic	3.0	1.0	3.0	R	1.076	0.0
9.1925	2.0	classification-probabilistic	5.0	1.0	11.0	R	1.017	1.0
14.1105	2.0	classification-probabilistic	7.0	1.0	10.0	L	1.377	1.0
17.5835	2.0	classification-probabilistic	9.0	1.0	3.0	R	0.787	0.0
22.39	2.0	classification-deterministic	11.0	2.0	10.0	L	1.118	1.0
26.224	2.0	classification-deterministic	13.0	2.0	10.0	L	1.355	1.0
29.5245	2.0	classification-deterministic	15.0	2.0	11.0	R	2.35	1.0
33.8915	2.0	classification-deterministic	17.0	2.0	10.0	L	0.752	1.0
38.821	2.0	classification-deterministic	19.0	2.0	2.0	R	0.866	1.0
43.083	2.0	classification-probabilistic	21.0	1.0	14.0	R	1.433	1.0
47.2	2.0	classification-probabilistic	23.0	1.0	2.0	R	0.828	1.0
51.4985	2.0	classification-probabilistic	25.0	1.0	10.0	L	2.195	1.0
55.1865	2.0	classification-deterministic	27.0	2.0	13.0	L	2.335	1.0
59.7185	2.0	classification-probabilistic	29.0	1.0	10.0	L	1.779	1.0
63.724	2.0	classification-probabilistic	31.0	1.0	10.0	L	1.521	1.0
69.8185	2.0	classification-deterministic	33.0	2.0	2.0	R	0.752	1.0
74.003	2.0	classification-deterministic	35.0	2.0	5.0	L	2.384	0.0
81.484	2.0	classification-deterministic	37.0	2.0	1.0	L	1.809	1.0
84.6905	2.0	classification-deterministic	39.0	2.0	13.0	L	1.853	1.0
87.6965	2.0	classification-probabilistic	41.0	1.0	3.0	R	0.985	0.0
91.3065	2.0	classification-probabilistic	43.0	1.0	4.0	L	1.037	1.0
97.1785	2.0	classification-deterministic	45.0	2.0	10.0	L	1.233	1.0
102.195	2.0	classification-probabilistic	47.0	1.0	4.0	L	1.168	1.0
109.6805	2.0	classification-probabilistic	49.0	1.0	5.0	R	1.074	1.0
112.885	2.0	classification-probabilistic	51.0	1.0	6.0	R	1.897	0.0
118.2145	2.0	classification-probabilistic	53.0	1.0	14.0	R	1.698	1.0
122.5855	2.0	classification-deterministic	55.0	2.0	2.0	R	0.893	1.0
130.0975	2.0	classification-deterministic	57.0	2.0	1.0	L	1.625	1.0
136.3175	2.0	classification-deterministic	59.0	2.0	3.0	R	0.853	1.0
142.093	2.0	classification-probabilistic	61.0	1.0	3.0	R	0.842	0.0
149.2145	2.0	classification-probabilistic	63.0	1.0	11.0	R	1.596	1.0
152.4945	2.0	classification-probabilistic	65.0	1.0	7.0	L	1.667	1.0
155.422	2.0	classification-probabilistic	67.0	1.0	1.0	R	0.685	1.0
159.097	2.0	classification-deterministic	69.0	2.0	3.0	R	0.923	1.0
162.7	2.0	classification-probabilistic	n/a	n/a	n/a	n/a	n/a	n/a
162.75	n/a	n/a	71.0	1.0	6.0	R	1.411	0.0
169.6795	2.0	classification-probabilistic	73.0	1.0	8.0	R	1.363	1.0
177.1815	2.0	classification-probabilistic	75.0	1.0	8.0	R	0.839	1.0
180.616	2.0	classification-probabilistic	77.0	1.0	5.0	R	0.914	1.0
185.099	2.0	classification-deterministic	79.0	2.0	11.0	L	1.424	0.0
190.793	2.0	classification-probabilistic	81.0	1.0	5.0	R	1.077	1.0
194.0845	2.0	classification-deterministic	83.0	2.0	3.0	R	0.813	1.0
197.4155	2.0	classification-deterministic	85.0	2.0	13.0	L	1.527	1.0
201.3885	2.0	classification-deterministic	87.0	2.0	9.0	L	1.234	0.0
204.414	2.0	classification-deterministic	89.0	2.0	13.0	L	1.551	1.0
210.5995	2.0	classification-probabilistic	91.0	1.0	11.0	R	1.46	1.0
215.5965	2.0	classification-deterministic	93.0	2.0	3.0	R	0.939	1.0
221.4015	2.0	classification-deterministic	95.0	2.0	7.0	L	1.457	1.0
224.503	2.0	classification-deterministic	97.0	2.0	6.0	R	0.898	0.0
227.8115	2.0	classification-probabilistic	99.0	1.0	4.0	R	1.317	0.0
232.809	2.0	classification-probabilistic	101.0	1.0	3.0	R	0.923	0.0
236.6115	2.0	classification-deterministic	103.0	2.0	5.0	L	0.981	0.0
241.7865	2.0	classification-deterministic	105.0	2.0	7.0	L	0.96	1.0
248.821	2.0	classification-deterministic	107.0	2.0	11.0	R	2.315	1.0
252.076	2.0	classification-probabilistic	109.0	1.0	11.0	R	1.089	1.0
255.581	2.0	classification-deterministic	111.0	2.0	12.0	L	1.028	0.0
260.61	2.0	classification-deterministic	113.0	2.0	8.0	R	1.37	1.0
263.701	2.0	classification-deterministic	115.0	2.0	1.0	L	1.136	1.0
269.89	2.0	classification-deterministic	117.0	2.0	6.0	L	1.326	1.0
275.1865	2.0	classification-probabilistic	119.0	1.0	13.0	R	1.31	0.0
279.3095	2.0	classification-deterministic	121.0	2.0	2.0	R	0.856	1.0
283.4235	2.0	classification-deterministic	123.0	2.0	4.0	L	0.919	1.0
286.611	2.0	classification-probabilistic	125.0	1.0	6.0	R	1.513	0.0
291.398	2.0	classification-probabilistic	127.0	1.0	10.0	L	1.787	1.0
295.5785	2.0	classification-probabilistic	129.0	1.0	11.0	R	1.643	1.0
298.9125	2.0	classification-deterministic	131.0	2.0	13.0	L	1.131	1.0
305.5975	2.0	classification-deterministic	133.0	2.0	3.0	R	0.789	1.0
311.988	2.0	classification-probabilistic	135.0	1.0	11.0	R	2.024	1.0
315.1915	2.0	classification-probabilistic	137.0	1.0	14.0	R	1.785	1.0
319.386	2.0	classification-probabilistic	139.0	1.0	10.0	L	2.284	1.0
322.495	2.0	classification-probabilistic	141.0	1.0	10.0	L	1.447	1.0
329.8205	2.0	classification-deterministic	143.0	2.0	1.0	L	0.852	1.0
337.286	2.0	classification-deterministic	145.0	2.0	7.0	L	0.825	1.0
342.7045	2.0	classification-deterministic	147.0	2.0	3.0	R	0.813	1.0
349.985	2.0	classification-probabilistic	149.0	1.0	11.0	R	1.376	1.0
354.8965	2.0	classification-probabilistic	151.0	1.0	10.0	L	1.589	1.0
359.005	2.0	classification-probabilistic	153.0	1.0	5.0	R	1.374	1.0
363.886	2.0	classification-deterministic	155.0	2.0	5.0	R	1.891	1.0
369.1975	2.0	classification-deterministic	157.0	2.0	2.0	R	0.881	1.0
372.6875	2.0	classification-deterministic	159.0	2.0	12.0	L	2.016	0.0
379.9	2.0	classification-deterministic	161.0	2.0	6.0	L	1.776	1.0
385.8995	2.0	classification-probabilistic	163.0	1.0	6.0	-	0.0	-1.0
389.502	2.0	classification-probabilistic	165.0	1.0	5.0	R	1.184	1.0
393.3925	2.0	classification-probabilistic	167.0	1.0	9.0	L	1.42	1.0
396.3105	2.0	classification-deterministic	169.0	2.0	2.0	R	1.055	1.0
400.5015	2.0	classification-deterministic	171.0	2.0	10.0	L	1.397	1.0
407.1	2.0	classification-probabilistic	173.0	1.0	14.0	R	1.203	1.0
413.4865	2.0	classification-probabilistic	175.0	1.0	2.0	R	0.9	1.0
417.302	2.0	classification-probabilistic	177.0	1.0	11.0	R	1.204	1.0
421.723	2.0	classification-deterministic	179.0	2.0	7.0	L	0.948	1.0
426.299	2.0	classification-deterministic	181.0	2.0	13.0	L	1.499	1.0
430.923	2.0	classification-deterministic	183.0	2.0	1.0	L	0.86	1.0
434.3145	2.0	classification-probabilistic	185.0	1.0	1.0	R	0.781	1.0
438.5205	2.0	classification-probabilistic	187.0	1.0	12.0	R	2.417	-1.0
441.6135	2.0	classification-deterministic	189.0	2.0	10.0	L	0.723	1.0
445.4975	2.0	classification-deterministic	191.0	2.0	7.0	L	0.824	1.0
450.6805	2.0	classification-probabilistic	193.0	1.0	8.0	R	1.114	1.0
454.61	2.0	classification-probabilistic	195.0	1.0	10.0	L	2.043	1.0
458.4835	2.0	classification-deterministic	197.0	2.0	13.0	L	0.981	1.0
461.499	2.0	classification-deterministic	199.0	2.0	9.0	L	1.783	0.0
