onset	duration	trial_type	TrialNum	StimCond	StimulusNum	Response	RT	Correct
0.121	2	classification-probabilistic	1	1	10	L	2.063	1
5.9005	2	classification-deterministic	3	2	5	R	2.448	1
13.2035	2	classification-deterministic	5	2	13	L	1.247	1
18.403	2	classification-deterministic	7	2	10	L	1.3119999999999998	1
25.622	2	classification-probabilistic	9	1	6	R	2.352	0
32.482	2	classification-probabilistic	11	1	1	R	0.83	1
35.724000000000004	2	classification-probabilistic	13	1	8	L	1.339	0
40.9215	2	classification-deterministic	15	2	3	R	1.057	1
44.1835	2	classification-deterministic	17	2	12	L	1.6480000000000001	0
48.6	2	classification-probabilistic	19	1	14	R	1.776	1
51.584	2	classification-probabilistic	21	1	1	R	0.784	1
56.614000000000004	2	classification-probabilistic	23	1	8	R	1.2590000000000001	1
60.117	2	classification-probabilistic	25	1	5	R	0.882	1
65.5065	2	classification-probabilistic	27	1	10	L	1.6440000000000001	1
71.2055	2	classification-deterministic	29	2	12	L	1.85	0
75.977	2	classification-deterministic	31	2	2	R	0.823	1
80.62199999999999	2	classification-deterministic	33	2	5	R	1.8530000000000002	1
84.49350000000001	2	classification-probabilistic	35	1	10	L	1.3459999999999999	1
91.2055	2	classification-deterministic	37	2	4	L	0.9259999999999999	1
97.2055	2	classification-deterministic	39	2	4	L	1.351	1
101.187	2	classification-deterministic	41	2	12	L	1.828	0
105.9125	2	classification-probabilistic	43	1	14	R	1.518	1
113.207	2	classification-deterministic	45	2	4	L	0.773	1
116.49449999999999	2	classification-probabilistic	47	1	6	R	0.986	0
119.703	2	classification-probabilistic	49	1	2	R	0.833	1
124.4845	2	classification-probabilistic	51	1	4	L	0.716	1
131.8195	2	classification-deterministic	53	2	1	L	1.557	1
139.49099999999999	2	classification-probabilistic	55	1	13	-	0.0	-1
142.808	2	classification-probabilistic	57	1	1	R	1.462	1
146.308	2	classification-probabilistic	59	1	4	L	0.7759999999999999	1
150.304	2	classification-probabilistic	61	1	11	R	1.193	1
156.5915	2	classification-deterministic	63	2	11	R	0.902	1
159.92399999999998	2	classification-probabilistic	65	1	1	R	0.649	1
163.08350000000002	2	classification-deterministic	67	2	4	L	0.674	1
167.3845	2	classification-deterministic	69	2	7	L	0.9159999999999999	1
170.401	2	classification-deterministic	71	2	7	L	1.083	1
174.2205	2	classification-deterministic	73	2	9	L	2.133	0
180.398	2	classification-probabilistic	75	1	10	L	1.242	1
185.5985	2	classification-probabilistic	77	1	11	R	1.192	1
190.47750000000002	2	classification-deterministic	79	2	4	L	0.655	1
194.92450000000002	2	classification-deterministic	81	2	3	R	0.778	1
199.1865	2	classification-deterministic	83	2	13	L	0.8340000000000001	1
202.18599999999998	2	classification-deterministic	85	2	12	L	1.355	0
208.79149999999998	2	classification-probabilistic	87	1	5	R	1.4340000000000002	1
213.39350000000002	2	classification-probabilistic	89	1	6	R	0.956	0
219.9015	2	classification-deterministic	91	2	5	R	1.5530000000000002	1
223.18349999999998	2	classification-deterministic	93	2	11	R	1.5330000000000001	1
226.724	2	classification-deterministic	95	2	8	R	1.34	1
229.885	2	classification-deterministic	97	2	8	R	1.514	1
235.7865	2	classification-probabilistic	99	1	6	R	2.1630000000000003	0
240.822	2	classification-probabilistic	101	1	11	R	1.7890000000000001	1
244.1105	2	classification-deterministic	103	2	5	L	1.52	0
247.977	2	classification-probabilistic	105	1	2	R	1.679	1
252.41649999999998	2	classification-probabilistic	107	1	13	R	1.96	0
257.99350000000004	2	classification-probabilistic	109	1	6	R	1.959	0
261.584	2	classification-probabilistic	111	1	3	R	0.841	0
265.722	2	classification-deterministic	113	2	5	L	1.97	0
272.40049999999997	2	classification-deterministic	115	2	7	L	1.0490000000000002	1
275.6835	2	classification-deterministic	117	2	12	L	1.3430000000000002	0
281.706	2	classification-probabilistic	119	1	4	R	2.051	0
289.121	2	classification-probabilistic	121	1	6	R	1.149	0
293.47799999999995	2	classification-probabilistic	123	1	2	R	0.787	1
299.20550000000003	2	classification-deterministic	125	2	1	L	0.7290000000000001	1
304.32	2	classification-deterministic	127	2	1	L	0.696	1
307.5815	2	classification-deterministic	129	2	14	L	1.785	0
310.8085	2	classification-deterministic	131	2	4	L	0.747	1
316.008	2	classification-probabilistic	133	1	6	R	0.677	0
322.323	2	classification-probabilistic	135	1	14	R	1.45	1
325.2185	2	classification-probabilistic	137	1	10	L	1.176	1
328.422	2	classification-probabilistic	139	1	4	R	1.032	0
332.5105	2	classification-deterministic	141	2	10	L	1.796	1
336.612	2	classification-deterministic	143	2	8	R	1.021	1
339.883	2	classification-deterministic	145	2	5	L	1.724	0
343.9955	2	classification-deterministic	147	2	7	L	1.071	1
349.288	2	classification-deterministic	149	2	5	L	1.002	0
352.7955	2	classification-probabilistic	151	1	12	R	1.383	-1
358.70799999999997	2	classification-probabilistic	153	1	2	R	0.883	1
362.38599999999997	2	classification-probabilistic	155	1	10	L	1.8430000000000002	1
366.78099999999995	2	classification-probabilistic	157	1	5	R	1.0759999999999998	1
372.7885	2	classification-deterministic	159	2	8	R	1.758	1
376.9995	2	classification-deterministic	161	2	6	L	1.9680000000000002	1
379.997	2	classification-deterministic	163	2	10	L	1.341	1
383.6995	2	classification-probabilistic	165	1	1	R	0.868	1
386.6945	2	classification-probabilistic	167	1	3	R	1.327	0
391.387	2	classification-probabilistic	169	1	8	R	1.393	1
395.8095	2	classification-deterministic	171	2	2	R	0.941	1
401.108	2	classification-deterministic	173	2	9	L	1.5719999999999998	0
405.22	2	classification-probabilistic	175	1	10	R	2.032	0
408.38599999999997	2	classification-probabilistic	177	1	6	R	1.781	0
411.699	2	classification-deterministic	179	2	4	L	0.7759999999999999	1
416.27700000000004	2	classification-deterministic	181	2	7	L	1.723	1
422.1205	2	classification-probabilistic	183	1	10	L	2.084	1
426.6975	2	classification-probabilistic	185	1	11	R	1.9780000000000002	1
431.1135	2	classification-probabilistic	187	1	8	R	1.94	1
434.612	2	classification-deterministic	189	2	10	L	1.5130000000000001	1
437.72450000000003	2	classification-deterministic	191	2	10	L	1.8530000000000002	1
443.22299999999996	2	classification-probabilistic	193	1	10	-	0.0	-1
448.9785	2	classification-probabilistic	195	1	2	R	0.79	1
452.10900000000004	2	classification-deterministic	197	2	10	-	0.0	-1
456.5	2	classification-deterministic	199	2	7	L	0.775	1
