onset	duration	trial_type	Object_Cond	Validity_Cond	Obj_Accuracy	Obj_Acc_RT	Subseq_Recog	Subseq_Recog_RT	Subseq_Source_Mem_Acc	Subseq_Source_Mem_Acc_RT
4.0003	1.0	Valid Other Obj Cue: valid cue where following stimulus was an untested or no response object	OBJ	V	1	0.60633	UT	UT	UT	UT
6.0003	0.5	Valid Other Obj: stimulus that was an untested or no response object and that followed a valid cue	OBJ	V	1	0.60633	UT	UT	UT	UT
8.0019	1.0	Valid Miss Cue: valid cue where following object was a subsequent miss	OBJ	V	1	0.54513	HC-MISS	0.67263	UT	UT
10.0019	0.5	Valid Miss Obj: object that was a subsequent miss and that followed a valid cue	OBJ	V	1	0.54513	HC-MISS	0.67263	UT	UT
12.0011	1.0	Valid Other Greeble Cue: valid cue where following stimulus was an untested or no response greeble	GRE	V	1	0.70134	UT	UT	UT	UT
14.0011	0.5	Valid Other Greeble: stimulus that was an untested or no response greeble and that followed a valid cue	GRE	V	1	0.70134	UT	UT	UT	UT
16.0011	1.0	Invalid Miss Cue: invalid cue where following object was a subsequent miss	OBJ	NV	1	0.7761399999999999	LC-MISS	 0.8804	UT	UT
20.0011	0.5	Invalid Miss Obj: object that was a subsequent miss and that followed an invalid cue	OBJ	NV	1	0.7761399999999999	LC-MISS	 0.8804	UT	UT
22.0008	1.0	Valid Miss Cue: valid cue where following object was a subsequent miss	OBJ	V	1	0.51475	HC-MISS	0.72268	UT	UT
24.0008	0.5	Valid Miss Obj: object that was a subsequent miss and that followed a valid cue	OBJ	V	1	0.51475	HC-MISS	0.72268	UT	UT
26.0013	1.0	Valid Miss Cue: valid cue where following object was a subsequent miss	OBJ	V	1	0.59619	HC-MISS	0.68273	UT	UT
30.0013	0.5	Valid Miss Obj: object that was a subsequent miss and that followed a valid cue	OBJ	V	1	0.59619	HC-MISS	0.68273	UT	UT
32.0018	1.0	Valid Other Greeble Cue: valid cue where following stimulus was an untested or no response greeble	GRE	V	1	0.743	UT	UT	UT	UT
36.0018	0.5	Valid Other Greeble: stimulus that was an untested or no response greeble and that followed a valid cue	GRE	V	1	0.743	UT	UT	UT	UT
38.0018	1.0	Valid Other Obj Cue: valid cue where following stimulus was an untested or no response object	OBJ	V	1	0.6723899999999999	UT	UT	UT	UT
42.0018	0.5	Valid Other Obj: stimulus that was an untested or no response object and that followed a valid cue	OBJ	V	1	0.6723899999999999	UT	UT	UT	UT
44.0018	1.0	Valid HC-Hit Cue: valid cue where following object was a subsequent high confidence hit	OBJ	V	1	0.58686	HC-HIT	0.99408	1	0.27743
46.0018	0.5	Valid HC-Hit Obj: object that was a subsequent high confidence hit and that followed a valid cue	OBJ	V	1	0.58686	HC-HIT	0.99408	1	0.27743
50.0018	1.0	Valid HC-Hit Cue: valid cue where following object was a subsequent high confidence hit	OBJ	V	1	0.6895	HC-HIT	 1.4615	1	0.12075
56.0018	0.5	Valid HC-Hit Obj: object that was a subsequent high confidence hit and that followed a valid cue	OBJ	V	1	0.6895	HC-HIT	 1.4615	1	0.12075
58.0012	1.0	Valid Other Greeble Cue: valid cue where following stimulus was an untested or no response greeble	GRE	V	1	0.63494	UT	UT	UT	UT
62.0012	0.5	Valid Other Greeble: stimulus that was an untested or no response greeble and that followed a valid cue	GRE	V	1	0.63494	UT	UT	UT	UT
64.0019	1.0	Invalid Miss Cue: invalid cue where following object was a subsequent miss	OBJ	NV	1	0.6049100000000001	HC-MISS	0.94956	UT	UT
68.0019	0.5	Invalid Miss Obj: object that was a subsequent miss and that followed an invalid cue	OBJ	NV	1	0.6049100000000001	HC-MISS	0.94956	UT	UT
70.0013	1.0	Valid HC-Hit Cue: valid cue where following object was a subsequent high confidence hit	OBJ	V	1	0.8940799999999999	HC-HIT	 1.0174	1	0.32413
74.0013	0.5	Valid HC-Hit Obj: object that was a subsequent high confidence hit and that followed a valid cue	OBJ	V	1	0.8940799999999999	HC-HIT	 1.0174	1	0.32413
76.0015	1.0	Valid Other Greeble Cue: valid cue where following stimulus was an untested or no response greeble	GRE	V	1	0.7339600000000001	UT	UT	UT	UT
82.0015	0.5	Valid Other Greeble: stimulus that was an untested or no response greeble and that followed a valid cue	GRE	V	1	0.7339600000000001	UT	UT	UT	UT
84.0011	1.0	Valid HC-Hit Cue: valid cue where following object was a subsequent high confidence hit	OBJ	V	1	0.57595	HC-HIT	  1.598	1	1.2496
88.0011	0.5	Valid HC-Hit Obj: object that was a subsequent high confidence hit and that followed a valid cue	OBJ	V	1	0.57595	HC-HIT	  1.598	1	1.2496
90.0015	1.0	Valid Other Obj Cue: valid cue where following stimulus was an untested or no response object	OBJ	V	1	0.76779	UT	UT	UT	UT
96.0015	0.5	Valid Other Obj: stimulus that was an untested or no response object and that followed a valid cue	OBJ	V	1	0.76779	UT	UT	UT	UT
100.0015	1.0	Valid Other Greeble Cue: valid cue where following stimulus was an untested or no response greeble	GRE	V	1	0.6048	UT	UT	UT	UT
106.0015	0.5	Valid Other Greeble: stimulus that was an untested or no response greeble and that followed a valid cue	GRE	V	1	0.6048	UT	UT	UT	UT
108.001	1.0	Valid HC-Hit Cue: valid cue where following object was a subsequent high confidence hit	OBJ	V	1	0.7450600000000001	HC-HIT	 1.0357	1	0.25818
110.001	0.5	Valid HC-Hit Obj: object that was a subsequent high confidence hit and that followed a valid cue	OBJ	V	1	0.7450600000000001	HC-HIT	 1.0357	1	0.25818
112.0008	1.0	Valid Miss Cue: valid cue where following object was a subsequent miss	OBJ	V	1	1.4633	LC-MISS	 1.4813	UT	UT
118.0008	0.5	Valid Miss Obj: object that was a subsequent miss and that followed a valid cue	OBJ	V	1	1.4633	LC-MISS	 1.4813	UT	UT
120.0012	1.0	Valid LC-Hit Cue: valid cue where following object was a subsequent low confidence hit	OBJ	V	1	0.63446	LC-HIT	 2.4758	0	0.59952
124.0012	0.5	Valid LC-Hit Obj: object that was a subsequent low confidence hit and that followed a valid cue	OBJ	V	1	0.63446	LC-HIT	 2.4758	0	0.59952
126.0011	1.0	Invalid LC-Hit Cue: invalid cue where following object was a subsequent low confidence hit	OBJ	NV	1	0.60172	LC-HIT	 1.6066	1	0.62969
132.0011	0.5	Invalid LC-Hit Obj: object that was a subsequent low confidence hit and that followed an invalid cue	OBJ	NV	1	0.60172	LC-HIT	 1.6066	1	0.62969
136.0009	1.0	Valid HC-Hit Cue: valid cue where following object was a subsequent high confidence hit	OBJ	V	1	0.63884	HC-HIT	 2.1109	1	0.81711
142.0009	0.5	Valid HC-Hit Obj: object that was a subsequent high confidence hit and that followed a valid cue	OBJ	V	1	0.63884	HC-HIT	 2.1109	1	0.81711
144.0011	1.0	Invalid HC-Hit Cue: invalid cue where following object was a subsequent high confidence hit	OBJ	NV	1	0.9745799999999999	HC-HIT	 0.9974	1	0.029337
150.0011	0.5	Invalid HC-Hit Obj: object that was a subsequent high confidence hit and that followed an invalid cue	OBJ	NV	1	0.9745799999999999	HC-HIT	 0.9974	1	0.029337
152.0008	1.0	Valid Miss Cue: valid cue where following object was a subsequent miss	OBJ	V	1	0.75258	HC-MISS	 1.6409	UT	UT
156.0008	0.5	Valid Miss Obj: object that was a subsequent miss and that followed a valid cue	OBJ	V	1	0.75258	HC-MISS	 1.6409	UT	UT
160.0015	1.0	Valid Other Greeble Cue: valid cue where following stimulus was an untested or no response greeble	GRE	V	1	0.7087899999999999	UT	UT	UT	UT
166.0015	0.5	Valid Other Greeble: stimulus that was an untested or no response greeble and that followed a valid cue	GRE	V	1	0.7087899999999999	UT	UT	UT	UT
168.0008	1.0	Invalid Other Greeble Cue: invalid cue where following stimulus was an untested or no response greeble	GRE	NV	1	0.66984	UT	UT	UT	UT
174.0008	0.5	Invalid Other Greeble: stimulus that was an untested or no response greeble and that followed a invalid cue	GRE	NV	1	0.66984	UT	UT	UT	UT
176.0012	1.0	Valid Miss Cue: valid cue where following object was a subsequent miss	OBJ	V	1	0.7618199999999999	LC-MISS	 3.5699	UT	UT
178.0012	0.5	Valid Miss Obj: object that was a subsequent miss and that followed a valid cue	OBJ	V	1	0.7618199999999999	LC-MISS	 3.5699	UT	UT
180.0014	1.0	Valid Miss Cue: valid cue where following object was a subsequent miss	OBJ	V	1	0.5949800000000001	HC-MISS	 2.9445	UT	UT
184.0014	0.5	Valid Miss Obj: object that was a subsequent miss and that followed a valid cue	OBJ	V	1	0.5949800000000001	HC-MISS	 2.9445	UT	UT
186.0018	1.0	Invalid HC-Hit Cue: invalid cue where following object was a subsequent high confidence hit	OBJ	NV	1	0.62373	HC-HIT	 1.0135	1	0.12884
188.0018	0.5	Invalid HC-Hit Obj: object that was a subsequent high confidence hit and that followed an invalid cue	OBJ	NV	1	0.62373	HC-HIT	 1.0135	1	0.12884
190.0008	1.0	Valid Miss Cue: valid cue where following object was a subsequent miss	OBJ	V	1	0.63995	HC-MISS	 1.5804	UT	UT
194.0008	0.5	Valid Miss Obj: object that was a subsequent miss and that followed a valid cue	OBJ	V	1	0.63995	HC-MISS	 1.5804	UT	UT
196.0014	1.0	Valid Other Greeble Cue: valid cue where following stimulus was an untested or no response greeble	GRE	V	1	0.80425	UT	UT	UT	UT
198.0014	0.5	Valid Other Greeble: stimulus that was an untested or no response greeble and that followed a valid cue	GRE	V	1	0.80425	UT	UT	UT	UT
200.0013	1.0	Valid Other Obj Cue: valid cue where following stimulus was an untested or no response object	OBJ	V	1	1.1565	UT	UT	UT	UT
206.0013	0.5	Valid Other Obj: stimulus that was an untested or no response object and that followed a valid cue	OBJ	V	1	1.1565	UT	UT	UT	UT
208.0017	1.0	Valid Other Greeble Cue: valid cue where following stimulus was an untested or no response greeble	GRE	V	1	0.58354	UT	UT	UT	UT
210.0017	0.5	Valid Other Greeble: stimulus that was an untested or no response greeble and that followed a valid cue	GRE	V	1	0.58354	UT	UT	UT	UT
212.0016	1.0	Invalid Miss Cue: invalid cue where following object was a subsequent miss	OBJ	NV	1	0.56868	HC-MISS	 1.1328	UT	UT
216.0016	0.5	Invalid Miss Obj: object that was a subsequent miss and that followed an invalid cue	OBJ	NV	1	0.56868	HC-MISS	 1.1328	UT	UT
220.0012	1.0	Valid HC-Hit Cue: valid cue where following object was a subsequent high confidence hit	OBJ	V	1	0.7420399999999999	HC-HIT	0.86036	1	0.2623
226.0012	0.5	Valid HC-Hit Obj: object that was a subsequent high confidence hit and that followed a valid cue	OBJ	V	1	0.7420399999999999	HC-HIT	0.86036	1	0.2623
230.002	1.0	Valid LC-Hit Cue: valid cue where following object was a subsequent low confidence hit	OBJ	V	1	0.65466	LC-HIT	 1.3116	0	1.2243
234.002	0.5	Valid LC-Hit Obj: object that was a subsequent low confidence hit and that followed a valid cue	OBJ	V	1	0.65466	LC-HIT	 1.3116	0	1.2243
240.0008	1.0	Invalid Miss Cue: invalid cue where following object was a subsequent miss	OBJ	NV	1	0.55698	HC-MISS	 1.1676	UT	UT
242.0008	0.5	Invalid Miss Obj: object that was a subsequent miss and that followed an invalid cue	OBJ	NV	1	0.55698	HC-MISS	 1.1676	UT	UT
246.0004	1.0	Valid Other Greeble Cue: valid cue where following stimulus was an untested or no response greeble	GRE	V	1	0.63594	UT	UT	UT	UT
252.0004	0.5	Valid Other Greeble: stimulus that was an untested or no response greeble and that followed a valid cue	GRE	V	1	0.63594	UT	UT	UT	UT
256.0024	1.0	Valid Miss Cue: valid cue where following object was a subsequent miss	OBJ	V	1	0.62464	LC-MISS	 3.2576	UT	UT
262.0024	0.5	Valid Miss Obj: object that was a subsequent miss and that followed a valid cue	OBJ	V	1	0.62464	LC-MISS	 3.2576	UT	UT
264.0016	1.0	Valid Other Greeble Cue: valid cue where following stimulus was an untested or no response greeble	GRE	V	1	0.67696	UT	UT	UT	UT
266.0016	0.5	Valid Other Greeble: stimulus that was an untested or no response greeble and that followed a valid cue	GRE	V	1	0.67696	UT	UT	UT	UT
268.0016	1.0	Invalid Miss Cue: invalid cue where following object was a subsequent miss	OBJ	NV	1	1.0246	LC-MISS	 1.6461	UT	UT
270.0016	0.5	Invalid Miss Obj: object that was a subsequent miss and that followed an invalid cue	OBJ	NV	1	1.0246	LC-MISS	 1.6461	UT	UT
276.0019	1.0	Valid HC-Hit Cue: valid cue where following object was a subsequent high confidence hit	OBJ	V	1	0.56839	HC-HIT	 2.8923	0	0.68647
278.0019	0.5	Valid HC-Hit Obj: object that was a subsequent high confidence hit and that followed a valid cue	OBJ	V	1	0.56839	HC-HIT	 2.8923	0	0.68647
280.0016	1.0	Valid Other Greeble Cue: valid cue where following stimulus was an untested or no response greeble	GRE	V	1	0.5954	UT	UT	UT	UT
282.0016	0.5	Valid Other Greeble: stimulus that was an untested or no response greeble and that followed a valid cue	GRE	V	1	0.5954	UT	UT	UT	UT
284.0014	1.0	Valid HC-Hit Cue: valid cue where following object was a subsequent high confidence hit	OBJ	V	1	0.54993	HC-HIT	 0.9103	1	0.19021
288.0014	0.5	Valid HC-Hit Obj: object that was a subsequent high confidence hit and that followed a valid cue	OBJ	V	1	0.54993	HC-HIT	 0.9103	1	0.19021
290.001	1.0	Valid LC-Hit Cue: valid cue where following object was a subsequent low confidence hit	OBJ	V	1	0.54861	LC-HIT	 1.6293	0	1.0311
296.001	0.5	Valid LC-Hit Obj: object that was a subsequent low confidence hit and that followed a valid cue	OBJ	V	1	0.54861	LC-HIT	 1.6293	0	1.0311
298.0011	1.0	Valid Other Greeble Cue: valid cue where following stimulus was an untested or no response greeble	GRE	V	1	0.60487	UT	UT	UT	UT
304.0011	0.5	Valid Other Greeble: stimulus that was an untested or no response greeble and that followed a valid cue	GRE	V	1	0.60487	UT	UT	UT	UT
306.0012	1.0	Valid Other Greeble Cue: valid cue where following stimulus was an untested or no response greeble	GRE	V	1	0.56137	UT	UT	UT	UT
308.0012	0.5	Valid Other Greeble: stimulus that was an untested or no response greeble and that followed a valid cue	GRE	V	1	0.56137	UT	UT	UT	UT
310.0018	1.0	Valid Miss Cue: valid cue where following object was a subsequent miss	OBJ	V	1	0.6318600000000001	LC-MISS	0.95295	UT	UT
316.0018	0.5	Valid Miss Obj: object that was a subsequent miss and that followed a valid cue	OBJ	V	1	0.6318600000000001	LC-MISS	0.95295	UT	UT
318.0016	1.0	Valid Other Obj Cue: valid cue where following stimulus was an untested or no response object	OBJ	V	1	0.61902	UT	UT	UT	UT
322.0016	0.5	Valid Other Obj: stimulus that was an untested or no response object and that followed a valid cue	OBJ	V	1	0.61902	UT	UT	UT	UT
324.0009	1.0	Invalid Other Greeble Cue: invalid cue where following stimulus was an untested or no response greeble	GRE	NV	1	0.99264	UT	UT	UT	UT
330.0009	0.5	Invalid Other Greeble: stimulus that was an untested or no response greeble and that followed a invalid cue	GRE	NV	1	0.99264	UT	UT	UT	UT
332.0014	1.0	Valid Miss Cue: valid cue where following object was a subsequent miss	OBJ	V	1	0.7965899999999999	LC-MISS	 3.9418	UT	UT
334.0014	0.5	Valid Miss Obj: object that was a subsequent miss and that followed a valid cue	OBJ	V	1	0.7965899999999999	LC-MISS	 3.9418	UT	UT
336.0009	1.0	Valid Other Greeble Cue: valid cue where following stimulus was an untested or no response greeble	GRE	V	1	0.70243	UT	UT	UT	UT
340.0009	0.5	Valid Other Greeble: stimulus that was an untested or no response greeble and that followed a valid cue	GRE	V	1	0.70243	UT	UT	UT	UT
342.0012	1.0	Valid HC-Hit Cue: valid cue where following object was a subsequent high confidence hit	OBJ	V	1	0.7934	HC-HIT	0.93725	1	0.22875
346.0012	0.5	Valid HC-Hit Obj: object that was a subsequent high confidence hit and that followed a valid cue	OBJ	V	1	0.7934	HC-HIT	0.93725	1	0.22875
350.00199999999995	1.0	Valid Other Obj Cue: valid cue where following stimulus was an untested or no response object	OBJ	V	1	0.53725	NR	NR	UT	UT
354.00199999999995	0.5	Valid Other Obj: stimulus that was an untested or no response object and that followed a valid cue	OBJ	V	1	0.53725	NR	NR	UT	UT
356.0018	1.0	Valid HC-Hit Cue: valid cue where following object was a subsequent high confidence hit	OBJ	V	1	0.66767	HC-HIT	 2.0007	1	0.0923
358.0018	0.5	Valid HC-Hit Obj: object that was a subsequent high confidence hit and that followed a valid cue	OBJ	V	1	0.66767	HC-HIT	 2.0007	1	0.0923
360.0016	1.0	Valid LC-Hit Cue: valid cue where following object was a subsequent low confidence hit	OBJ	V	1	0.54351	LC-HIT	 1.5534	0	0.52673
362.0016	0.5	Valid LC-Hit Obj: object that was a subsequent low confidence hit and that followed a valid cue	OBJ	V	1	0.54351	LC-HIT	 1.5534	0	0.52673
