onset	duration	trial_type	Object_Cond	Validity_Cond	Obj_Accuracy	Obj_Acc_RT	Subseq_Recog	Subseq_Recog_RT	Subseq_Source_Mem_Acc	Subseq_Source_Mem_Acc_RT
4.001	1.000	Valid Other Greeble Cue: valid cue where following stimulus was an untested or no response greeble	GRE	V	1	0.633	UT	UT	UT	UT
10.001	0.500	Valid Other Greeble: stimulus that was an untested or no response greeble and that followed a valid cue	GRE	V	1	0.633	UT	UT	UT	UT
12.002	1.000	Valid LC-Hit Cue: valid cue where following object was a subsequent low confidence hit	OBJ	V	1	0.582	LC-HIT	 2.8519	1	0.17799
14.002	0.500	Valid LC-Hit Obj: object that was a subsequent low confidence hit and that followed a valid cue	OBJ	V	1	0.582	LC-HIT	 2.8519	1	0.17799
16.001	1.000	Valid HC-Hit Cue: valid cue where following object was a subsequent high confidence hit	OBJ	V	1	0.711	HC-HIT	0.95456	1	0.017656
20.001	0.500	Valid HC-Hit Obj: object that was a subsequent high confidence hit and that followed a valid cue	OBJ	V	1	0.711	HC-HIT	0.95456	1	0.017656
22.001	1.000	Valid Other Greeble Cue: valid cue where following stimulus was an untested or no response greeble	GRE	V	1	0.542	UT	UT	UT	UT
28.001	0.500	Valid Other Greeble: stimulus that was an untested or no response greeble and that followed a valid cue	GRE	V	1	0.542	UT	UT	UT	UT
30.001	1.000	Invalid HC-Hit Cue: invalid cue where following object was a subsequent high confidence hit	OBJ	NV	1	0.552	HC-HIT	0.25339	0	3.4444
34.001	0.500	Invalid HC-Hit Obj: object that was a subsequent high confidence hit and that followed an invalid cue	OBJ	NV	1	0.552	HC-HIT	0.25339	0	3.4444
36.002	1.000	Valid Other Obj Cue: valid cue where following stimulus was an untested or no response object	OBJ	V	1	0.544	UT	UT	UT	UT
42.002	0.500	Valid Other Obj: stimulus that was an untested or no response object and that followed a valid cue	OBJ	V	1	0.544	UT	UT	UT	UT
46.002	1.000	Valid LC-Hit Cue: valid cue where following object was a subsequent low confidence hit	OBJ	V	1	0.538	LC-HIT	 1.9057	0	0.27337
48.002	0.500	Valid LC-Hit Obj: object that was a subsequent low confidence hit and that followed a valid cue	OBJ	V	1	0.538	LC-HIT	 1.9057	0	0.27337
50.003	1.000	Valid LC-Hit Cue: valid cue where following object was a subsequent low confidence hit	OBJ	V	1	0.532	LC-HIT	 1.7586	1	0.3312
54.003	0.500	Valid LC-Hit Obj: object that was a subsequent low confidence hit and that followed a valid cue	OBJ	V	1	0.532	LC-HIT	 1.7586	1	0.3312
56.002	1.000	Invalid Miss Cue: invalid cue where following object was a subsequent miss	OBJ	NV	1	0.632	LC-MISS	 3.5723	UT	UT
58.002	0.500	Invalid Miss Obj: object that was a subsequent miss and that followed an invalid cue	OBJ	NV	1	0.632	LC-MISS	 3.5723	UT	UT
60.001	1.000	Valid Miss Cue: valid cue where following object was a subsequent miss	OBJ	V	1	0.814	HC-MISS	0.77514	UT	UT
66.001	0.500	Valid Miss Obj: object that was a subsequent miss and that followed a valid cue	OBJ	V	1	0.814	HC-MISS	0.77514	UT	UT
68.001	1.000	Valid Other Greeble Cue: valid cue where following stimulus was an untested or no response greeble	GRE	V	1	0.666	UT	UT	UT	UT
70.001	0.500	Valid Other Greeble: stimulus that was an untested or no response greeble and that followed a valid cue	GRE	V	1	0.666	UT	UT	UT	UT
72.001	1.000	Valid HC-Hit Cue: valid cue where following object was a subsequent high confidence hit	OBJ	V	1	0.605	HC-HIT	 1.6512	1	0.21782
76.001	0.500	Valid HC-Hit Obj: object that was a subsequent high confidence hit and that followed a valid cue	OBJ	V	1	0.605	HC-HIT	 1.6512	1	0.21782
78.001	1.000	Valid HC-Hit Cue: valid cue where following object was a subsequent high confidence hit	OBJ	V	1	0.481	HC-HIT	 1.9125	0	0.12642
84.001	0.500	Valid HC-Hit Obj: object that was a subsequent high confidence hit and that followed a valid cue	OBJ	V	1	0.481	HC-HIT	 1.9125	0	0.12642
86.001	1.000	Valid Miss Cue: valid cue where following object was a subsequent miss	OBJ	V	1	0.606	HC-MISS	 2.6943	UT	UT
90.001	0.500	Valid Miss Obj: object that was a subsequent miss and that followed a valid cue	OBJ	V	1	0.606	HC-MISS	 2.6943	UT	UT
94.001	1.000	Valid Other Greeble Cue: valid cue where following stimulus was an untested or no response greeble	GRE	V	1	0.654	UT	UT	UT	UT
98.001	0.500	Valid Other Greeble: stimulus that was an untested or no response greeble and that followed a valid cue	GRE	V	1	0.654	UT	UT	UT	UT
100.002	1.000	Invalid Miss Cue: invalid cue where following object was a subsequent miss	OBJ	NV	1	0.745	LC-MISS	 2.7793	UT	UT
102.002	0.500	Invalid Miss Obj: object that was a subsequent miss and that followed an invalid cue	OBJ	NV	1	0.745	LC-MISS	 2.7793	UT	UT
106.002	1.000	Valid Miss Cue: valid cue where following object was a subsequent miss	OBJ	V	1	0.737	HC-MISS	 0.9467	UT	UT
110.002	0.500	Valid Miss Obj: object that was a subsequent miss and that followed a valid cue	OBJ	V	1	0.737	HC-MISS	 0.9467	UT	UT
114.001	1.000	Valid HC-Hit Cue: valid cue where following object was a subsequent high confidence hit	OBJ	V	1	0.824	HC-HIT	 1.0229	1	0.18246
118.001	0.500	Valid HC-Hit Obj: object that was a subsequent high confidence hit and that followed a valid cue	OBJ	V	1	0.824	HC-HIT	 1.0229	1	0.18246
120.001	1.000	Valid Other Obj Cue: valid cue where following stimulus was an untested or no response object	OBJ	V	1	0.708	UT	UT	UT	UT
122.001	0.500	Valid Other Obj: stimulus that was an untested or no response object and that followed a valid cue	OBJ	V	1	0.708	UT	UT	UT	UT
124.001	1.000	Valid Miss Cue: valid cue where following object was a subsequent miss	OBJ	V	1	0.632	HC-MISS	0.73285	UT	UT
126.001	0.500	Valid Miss Obj: object that was a subsequent miss and that followed a valid cue	OBJ	V	1	0.632	HC-MISS	0.73285	UT	UT
128.001	1.000	Valid Miss Cue: valid cue where following object was a subsequent miss	OBJ	V	1	0.599	LC-MISS	 1.5603	UT	UT
134.001	0.500	Valid Miss Obj: object that was a subsequent miss and that followed a valid cue	OBJ	V	1	0.599	LC-MISS	 1.5603	UT	UT
136.001	1.000	Valid Other Greeble Cue: valid cue where following stimulus was an untested or no response greeble	GRE	V	1	0.617	UT	UT	UT	UT
140.001	0.500	Valid Other Greeble: stimulus that was an untested or no response greeble and that followed a valid cue	GRE	V	1	0.617	UT	UT	UT	UT
142.001	1.000	Valid HC-Hit Cue: valid cue where following object was a subsequent high confidence hit	OBJ	V	1	0.733	HC-HIT	 1.0639	1	0.060357
144.001	0.500	Valid HC-Hit Obj: object that was a subsequent high confidence hit and that followed a valid cue	OBJ	V	1	0.733	HC-HIT	 1.0639	1	0.060357
146.000	1.000	Valid Miss Cue: valid cue where following object was a subsequent miss	OBJ	V	1	0.657	HC-MISS	0.80717	UT	UT
148.000	0.500	Valid Miss Obj: object that was a subsequent miss and that followed a valid cue	OBJ	V	1	0.657	HC-MISS	0.80717	UT	UT
152.001	1.000	Valid Miss Cue: valid cue where following object was a subsequent miss	OBJ	V	1	0.547	LC-MISS	 1.3455	UT	UT
154.001	0.500	Valid Miss Obj: object that was a subsequent miss and that followed a valid cue	OBJ	V	1	0.547	LC-MISS	 1.3455	UT	UT
156.001	1.000	Invalid Miss Cue: invalid cue where following object was a subsequent miss	OBJ	NV	1	0.629	HC-MISS	 1.2461	UT	UT
160.001	0.500	Invalid Miss Obj: object that was a subsequent miss and that followed an invalid cue	OBJ	NV	1	0.629	HC-MISS	 1.2461	UT	UT
164.001	1.000	Valid Miss Cue: valid cue where following object was a subsequent miss	OBJ	V	1	0.707	LC-MISS	 1.1394	UT	UT
168.001	0.500	Valid Miss Obj: object that was a subsequent miss and that followed a valid cue	OBJ	V	1	0.707	LC-MISS	 1.1394	UT	UT
170.002	1.000	Valid Miss Cue: valid cue where following object was a subsequent miss	OBJ	V	1	0.579	HC-MISS	 1.1385	UT	UT
176.002	0.500	Valid Miss Obj: object that was a subsequent miss and that followed a valid cue	OBJ	V	1	0.579	HC-MISS	 1.1385	UT	UT
178.001	1.000	Valid Other Greeble Cue: valid cue where following stimulus was an untested or no response greeble	GRE	V	1	0.852	UT	UT	UT	UT
184.001	0.500	Valid Other Greeble: stimulus that was an untested or no response greeble and that followed a valid cue	GRE	V	1	0.852	UT	UT	UT	UT
186.001	1.000	Valid Other Greeble Cue: valid cue where following stimulus was an untested or no response greeble	GRE	V	1	0.615	UT	UT	UT	UT
188.001	0.500	Valid Other Greeble: stimulus that was an untested or no response greeble and that followed a valid cue	GRE	V	1	0.615	UT	UT	UT	UT
190.001	1.000	Valid Other Greeble Cue: valid cue where following stimulus was an untested or no response greeble	GRE	V	1	0.525	UT	UT	UT	UT
196.001	0.500	Valid Other Greeble: stimulus that was an untested or no response greeble and that followed a valid cue	GRE	V	1	0.525	UT	UT	UT	UT
200.002	1.000	Invalid Miss Cue: invalid cue where following object was a subsequent miss	OBJ	NV	1	0.736	HC-MISS	 1.2837	UT	UT
202.002	0.500	Invalid Miss Obj: object that was a subsequent miss and that followed an invalid cue	OBJ	NV	1	0.736	HC-MISS	 1.2837	UT	UT
208.002	1.000	Valid Other Obj Cue: valid cue where following stimulus was an untested or no response object	OBJ	V	1	0.798	UT	UT	UT	UT
212.002	0.500	Valid Other Obj: stimulus that was an untested or no response object and that followed a valid cue	OBJ	V	1	0.798	UT	UT	UT	UT
214.002	1.000	Valid HC-Hit Cue: valid cue where following object was a subsequent high confidence hit	OBJ	V	1	0.614	HC-HIT	 1.7738	0	0.3191
220.002	0.500	Valid HC-Hit Obj: object that was a subsequent high confidence hit and that followed a valid cue	OBJ	V	1	0.614	HC-HIT	 1.7738	0	0.3191
222.002	1.000	Valid Miss Cue: valid cue where following object was a subsequent miss	OBJ	V	1	0.549	LC-MISS	 1.2838	UT	UT
228.002	0.500	Valid Miss Obj: object that was a subsequent miss and that followed a valid cue	OBJ	V	1	0.549	LC-MISS	 1.2838	UT	UT
232.001	1.000	Valid Miss Cue: valid cue where following object was a subsequent miss	OBJ	V	1	0.639	HC-MISS	 2.3974	UT	UT
234.001	0.500	Valid Miss Obj: object that was a subsequent miss and that followed a valid cue	OBJ	V	1	0.639	HC-MISS	 2.3974	UT	UT
236.001	1.000	Valid Other Greeble Cue: valid cue where following stimulus was an untested or no response greeble	GRE	V	1	0.688	UT	UT	UT	UT
240.001	0.500	Valid Other Greeble: stimulus that was an untested or no response greeble and that followed a valid cue	GRE	V	1	0.688	UT	UT	UT	UT
242.002	1.000	Valid Other Greeble Cue: valid cue where following stimulus was an untested or no response greeble	GRE	V	1	0.592	UT	UT	UT	UT
248.002	0.500	Valid Other Greeble: stimulus that was an untested or no response greeble and that followed a valid cue	GRE	V	1	0.592	UT	UT	UT	UT
250.001	1.000	Invalid Miss Cue: invalid cue where following object was a subsequent miss	OBJ	NV	1	0.624	HC-MISS	 2.9307	UT	UT
256.001	0.500	Invalid Miss Obj: object that was a subsequent miss and that followed an invalid cue	OBJ	NV	1	0.624	HC-MISS	 2.9307	UT	UT
260.002	1.000	Valid Other Obj Cue: valid cue where following stimulus was an untested or no response object	OBJ	V	1	0.646	UT	UT	UT	UT
266.002	0.500	Valid Other Obj: stimulus that was an untested or no response object and that followed a valid cue	OBJ	V	1	0.646	UT	UT	UT	UT
268.001	1.000	Valid HC-Hit Cue: valid cue where following object was a subsequent high confidence hit	OBJ	V	1	0.783	HC-HIT	 2.8006	1	0.086177
272.001	0.500	Valid HC-Hit Obj: object that was a subsequent high confidence hit and that followed a valid cue	OBJ	V	1	0.783	HC-HIT	 2.8006	1	0.086177
278.001	1.000	Valid Other Greeble Cue: valid cue where following stimulus was an untested or no response greeble	GRE	V	1	0.703	UT	UT	UT	UT
280.001	0.500	Valid Other Greeble: stimulus that was an untested or no response greeble and that followed a valid cue	GRE	V	1	0.703	UT	UT	UT	UT
282.001	1.000	Invalid Miss Cue: invalid cue where following object was a subsequent miss	OBJ	NV	1	0.744	LC-MISS	0.91697	UT	UT
286.001	0.500	Invalid Miss Obj: object that was a subsequent miss and that followed an invalid cue	OBJ	NV	1	0.744	LC-MISS	0.91697	UT	UT
288.001	1.000	Valid HC-Hit Cue: valid cue where following object was a subsequent high confidence hit	OBJ	V	1	0.615	HC-HIT	 2.0606	1	0.077448
294.001	0.500	Valid HC-Hit Obj: object that was a subsequent high confidence hit and that followed a valid cue	OBJ	V	1	0.615	HC-HIT	 2.0606	1	0.077448
296.002	1.000	Valid Other Greeble Cue: valid cue where following stimulus was an untested or no response greeble	GRE	V	1	0.704	UT	UT	UT	UT
302.002	0.500	Valid Other Greeble: stimulus that was an untested or no response greeble and that followed a valid cue	GRE	V	1	0.704	UT	UT	UT	UT
304.001	1.000	Valid LC-Hit Cue: valid cue where following object was a subsequent low confidence hit	OBJ	V	1	0.771	LC-HIT	 2.6098	0	0.76721
306.001	0.500	Valid LC-Hit Obj: object that was a subsequent low confidence hit and that followed a valid cue	OBJ	V	1	0.771	LC-HIT	 2.6098	0	0.76721
310.002	1.000	Valid Other Greeble Cue: valid cue where following stimulus was an untested or no response greeble	GRE	V	1	0.634	UT	UT	UT	UT
314.002	0.500	Valid Other Greeble: stimulus that was an untested or no response greeble and that followed a valid cue	GRE	V	1	0.634	UT	UT	UT	UT
316.001	1.000	Invalid Miss Cue: invalid cue where following object was a subsequent miss	OBJ	NV	1	0.730	LC-MISS	 2.2778	UT	UT
322.001	0.500	Invalid Miss Obj: object that was a subsequent miss and that followed an invalid cue	OBJ	NV	1	0.730	LC-MISS	 2.2778	UT	UT
324.002	1.000	Valid Miss Cue: valid cue where following object was a subsequent miss	OBJ	V	1	0.659	HC-MISS	 1.5806	UT	UT
328.002	0.500	Valid Miss Obj: object that was a subsequent miss and that followed a valid cue	OBJ	V	1	0.659	HC-MISS	 1.5806	UT	UT
330.001	1.000	Valid Other Obj Cue: valid cue where following stimulus was an untested or no response object	OBJ	V	1	0.648	UT	UT	UT	UT
332.001	0.500	Valid Other Obj: stimulus that was an untested or no response object and that followed a valid cue	OBJ	V	1	0.648	UT	UT	UT	UT
334.002	1.000	Valid Other Greeble Cue: valid cue where following stimulus was an untested or no response greeble	GRE	V	1	0.579	UT	UT	UT	UT
336.002	0.500	Valid Other Greeble: stimulus that was an untested or no response greeble and that followed a valid cue	GRE	V	1	0.579	UT	UT	UT	UT
338.002	1.000	Valid HC-Hit Cue: valid cue where following object was a subsequent high confidence hit	OBJ	V	1	0.845	HC-HIT	 2.9823	0	0.4
342.002	0.500	Valid HC-Hit Obj: object that was a subsequent high confidence hit and that followed a valid cue	OBJ	V	1	0.845	HC-HIT	 2.9823	0	0.4
344.001	1.000	Invalid Other Greeble Cue: invalid cue where following stimulus was an untested or no response greeble	GRE	NV	1	0.954	UT	UT	UT	UT
346.001	0.500	Invalid Other Greeble: stimulus that was an untested or no response greeble and that followed a invalid cue	GRE	NV	1	0.954	UT	UT	UT	UT
348.002	1.000	Valid Miss Cue: valid cue where following object was a subsequent miss	OBJ	V	1	0.699	HC-MISS	 2.8133	UT	UT
352.002	0.500	Valid Miss Obj: object that was a subsequent miss and that followed a valid cue	OBJ	V	1	0.699	HC-MISS	 2.8133	UT	UT
354.001	1.000	Valid LC-Hit Cue: valid cue where following object was a subsequent low confidence hit	OBJ	V	1	0.647	LC-HIT	 2.5349	0	0.5107
356.001	0.500	Valid LC-Hit Obj: object that was a subsequent low confidence hit and that followed a valid cue	OBJ	V	1	0.647	LC-HIT	 2.5349	0	0.5107
358.002	1.000	Invalid Other Greeble Cue: invalid cue where following stimulus was an untested or no response greeble	GRE	NV	1	0.629	UT	UT	UT	UT
364.002	0.500	Invalid Other Greeble: stimulus that was an untested or no response greeble and that followed a invalid cue	GRE	NV	1	0.629	UT	UT	UT	UT
