onset	duration	trial_type	Object_Cond	Validity_Cond	Obj_Accuracy	Obj_Acc_RT	Subseq_Recog	Subseq_Recog_RT	Subseq_Source_Mem_Acc	Subseq_Source_Mem_Acc_RT
4.001	1.000	Valid Other Obj Cue: valid cue where following stimulus was an untested or no response object	OBJ	V	1	0.87724	UT	UT	UT	UT
8.001	0.500	Valid Other Obj: stimulus that was an untested or no response object and that followed a valid cue	OBJ	V	1	0.87724	UT	UT	UT	UT
10.001	1.000	Valid Other Greeble Cue: valid cue where following stimulus was an untested or no response greeble	GRE	V	1	 1.1436	UT	UT	UT	UT
14.001	0.500	Valid Other Greeble: stimulus that was an untested or no response greeble and that followed a valid cue	GRE	V	1	 1.1436	UT	UT	UT	UT
16.001	1.000	Valid LC-Hit Cue: valid cue where following object was a subsequent low confidence hit	OBJ	V	1	 0.6256	LC-HIT	 1.2303	0	0.54641
20.001	0.500	Valid LC-Hit Obj: object that was a subsequent low confidence hit and that followed a valid cue	OBJ	V	1	 0.6256	LC-HIT	 1.2303	0	0.54641
26.002	1.000	Valid LC-Hit Cue: valid cue where following object was a subsequent low confidence hit	OBJ	V	1	0.92484	LC-HIT	 1.9575	1	1.1631
32.002	0.500	Valid LC-Hit Obj: object that was a subsequent low confidence hit and that followed a valid cue	OBJ	V	1	0.92484	LC-HIT	 1.9575	1	1.1631
34.002	1.000	Valid HC-Hit Cue: valid cue where following object was a subsequent high confidence hit	OBJ	V	1	0.98511	HC-HIT	0.95142	1	0.36536
36.002	0.500	Valid HC-Hit Obj: object that was a subsequent high confidence hit and that followed a valid cue	OBJ	V	1	0.98511	HC-HIT	0.95142	1	0.36536
38.002	1.000	Invalid Miss Cue: invalid cue where following object was a subsequent miss	OBJ	NV	1	0.62646	HC-MISS	0.92885	UT	UT
42.002	0.500	Invalid Miss Obj: object that was a subsequent miss and that followed an invalid cue	OBJ	NV	1	0.62646	HC-MISS	0.92885	UT	UT
46.002	1.000	Valid Other Greeble Cue: valid cue where following stimulus was an untested or no response greeble	GRE	V	1	0.59418	UT	UT	UT	UT
50.002	0.500	Valid Other Greeble: stimulus that was an untested or no response greeble and that followed a valid cue	GRE	V	1	0.59418	UT	UT	UT	UT
52.001	1.000	Valid Other Greeble Cue: valid cue where following stimulus was an untested or no response greeble	GRE	V	1	0.59411	UT	UT	UT	UT
58.001	0.500	Valid Other Greeble: stimulus that was an untested or no response greeble and that followed a valid cue	GRE	V	1	0.59411	UT	UT	UT	UT
62.001	1.000	Valid Miss Cue: valid cue where following object was a subsequent miss	OBJ	V	NR	NR	LC-MISS	 1.2405	UT	UT
64.001	0.500	Valid Miss Obj: object that was a subsequent miss and that followed a valid cue	OBJ	V	NR	NR	LC-MISS	 1.2405	UT	UT
66.002	1.000	Valid HC-Hit Cue: valid cue where following object was a subsequent high confidence hit	OBJ	V	1	0.81779	HC-HIT	 1.2843	1	0.30712
72.002	0.500	Valid HC-Hit Obj: object that was a subsequent high confidence hit and that followed a valid cue	OBJ	V	1	0.81779	HC-HIT	 1.2843	1	0.30712
74.001	1.000	Invalid Miss Cue: invalid cue where following object was a subsequent miss	OBJ	NV	1	 1.7349	HC-MISS	0.95835	UT	UT
76.001	0.500	Invalid Miss Obj: object that was a subsequent miss and that followed an invalid cue	OBJ	NV	1	 1.7349	HC-MISS	0.95835	UT	UT
82.001	1.000	Valid HC-Hit Cue: valid cue where following object was a subsequent high confidence hit	OBJ	V	1	0.77962	HC-HIT	  1.272	0	0.51628
86.001	0.500	Valid HC-Hit Obj: object that was a subsequent high confidence hit and that followed a valid cue	OBJ	V	1	0.77962	HC-HIT	  1.272	0	0.51628
88.002	1.000	Valid HC-Hit Cue: valid cue where following object was a subsequent high confidence hit	OBJ	V	1	0.84407	HC-HIT	 1.5958	1	2.2285
94.002	0.500	Valid HC-Hit Obj: object that was a subsequent high confidence hit and that followed a valid cue	OBJ	V	1	0.84407	HC-HIT	 1.5958	1	2.2285
96.002	1.000	Valid Other Greeble Cue: valid cue where following stimulus was an untested or no response greeble	GRE	V	1	0.59545	UT	UT	UT	UT
102.002	0.500	Valid Other Greeble: stimulus that was an untested or no response greeble and that followed a valid cue	GRE	V	1	0.59545	UT	UT	UT	UT
104.002	1.000	Valid HC-Hit Cue: valid cue where following object was a subsequent high confidence hit	OBJ	V	1	0.63768	HC-HIT	 1.3643	1	0.05765
108.002	0.500	Valid HC-Hit Obj: object that was a subsequent high confidence hit and that followed a valid cue	OBJ	V	1	0.63768	HC-HIT	 1.3643	1	0.05765
110.001	1.000	Valid Other Obj Cue: valid cue where following stimulus was an untested or no response object	OBJ	V	1	0.53288	UT	UT	UT	UT
116.001	0.500	Valid Other Obj: stimulus that was an untested or no response object and that followed a valid cue	OBJ	V	1	0.53288	UT	UT	UT	UT
118.002	1.000	Invalid Miss Cue: invalid cue where following object was a subsequent miss	OBJ	NV	1	0.56877	HC-MISS	0.94074	UT	UT
120.002	0.500	Invalid Miss Obj: object that was a subsequent miss and that followed an invalid cue	OBJ	NV	1	0.56877	HC-MISS	0.94074	UT	UT
124.001	1.000	Valid Miss Cue: valid cue where following object was a subsequent miss	OBJ	V	1	0.87445	HC-MISS	 1.3904	UT	UT
126.001	0.500	Valid Miss Obj: object that was a subsequent miss and that followed a valid cue	OBJ	V	1	0.87445	HC-MISS	 1.3904	UT	UT
128.002	1.000	Valid Other Greeble Cue: valid cue where following stimulus was an untested or no response greeble	GRE	V	1	0.68497	UT	UT	UT	UT
130.002	0.500	Valid Other Greeble: stimulus that was an untested or no response greeble and that followed a valid cue	GRE	V	1	0.68497	UT	UT	UT	UT
132.001	1.000	Valid Miss Cue: valid cue where following object was a subsequent miss	OBJ	V	1	0.64818	HC-MISS	  1.022	UT	UT
136.001	0.500	Valid Miss Obj: object that was a subsequent miss and that followed a valid cue	OBJ	V	1	0.64818	HC-MISS	  1.022	UT	UT
138.001	1.000	Invalid Miss Cue: invalid cue where following object was a subsequent miss	OBJ	NV	1	0.99289	LC-MISS	 1.5536	UT	UT
142.001	0.500	Invalid Miss Obj: object that was a subsequent miss and that followed an invalid cue	OBJ	NV	1	0.99289	LC-MISS	 1.5536	UT	UT
144.001	1.000	Valid Miss Cue: valid cue where following object was a subsequent miss	OBJ	V	1	0.88587	HC-MISS	0.80126	UT	UT
146.001	0.500	Valid Miss Obj: object that was a subsequent miss and that followed a valid cue	OBJ	V	1	0.88587	HC-MISS	0.80126	UT	UT
148.001	1.000	Valid HC-Hit Cue: valid cue where following object was a subsequent high confidence hit	OBJ	V	1	0.93313	HC-HIT	  1.502	1	0.13491
154.001	0.500	Valid HC-Hit Obj: object that was a subsequent high confidence hit and that followed a valid cue	OBJ	V	1	0.93313	HC-HIT	  1.502	1	0.13491
158.001	1.000	Valid HC-Hit Cue: valid cue where following object was a subsequent high confidence hit	OBJ	V	1	0.95079	HC-HIT	 1.2607	1	0.22298
160.001	0.500	Valid HC-Hit Obj: object that was a subsequent high confidence hit and that followed a valid cue	OBJ	V	1	0.95079	HC-HIT	 1.2607	1	0.22298
162.001	1.000	Valid Other Greeble Cue: valid cue where following stimulus was an untested or no response greeble	GRE	V	1	0.68699	UT	UT	UT	UT
168.001	0.500	Valid Other Greeble: stimulus that was an untested or no response greeble and that followed a valid cue	GRE	V	1	0.68699	UT	UT	UT	UT
170.001	1.000	Valid Other Greeble Cue: valid cue where following stimulus was an untested or no response greeble	GRE	V	1	0.62931	UT	UT	UT	UT
176.001	0.500	Valid Other Greeble: stimulus that was an untested or no response greeble and that followed a valid cue	GRE	V	1	0.62931	UT	UT	UT	UT
178.001	1.000	Valid Other Greeble Cue: valid cue where following stimulus was an untested or no response greeble	GRE	V	1	0.84883	UT	UT	UT	UT
180.001	0.500	Valid Other Greeble: stimulus that was an untested or no response greeble and that followed a valid cue	GRE	V	1	0.84883	UT	UT	UT	UT
182.001	1.000	Invalid HC-Hit Cue: invalid cue where following object was a subsequent high confidence hit	OBJ	NV	1	 1.2262	HC-HIT	 1.4788	0	1.4562
186.001	0.500	Invalid HC-Hit Obj: object that was a subsequent high confidence hit and that followed an invalid cue	OBJ	NV	1	 1.2262	HC-HIT	 1.4788	0	1.4562
188.001	1.000	Valid LC-Hit Cue: valid cue where following object was a subsequent low confidence hit	OBJ	V	1	0.66597	LC-HIT	  1.099	0	0.42911
194.001	0.500	Valid LC-Hit Obj: object that was a subsequent low confidence hit and that followed a valid cue	OBJ	V	1	0.66597	LC-HIT	  1.099	0	0.42911
196.002	1.000	Valid Other Greeble Cue: valid cue where following stimulus was an untested or no response greeble	GRE	V	1	 1.0791	UT	UT	UT	UT
198.002	0.500	Valid Other Greeble: stimulus that was an untested or no response greeble and that followed a valid cue	GRE	V	1	 1.0791	UT	UT	UT	UT
200.001	1.000	Invalid Other Greeble Cue: invalid cue where following stimulus was an untested or no response greeble	GRE	NV	1	0.99283	UT	UT	UT	UT
204.001	0.500	Invalid Other Greeble: stimulus that was an untested or no response greeble and that followed a invalid cue	GRE	NV	1	0.99283	UT	UT	UT	UT
206.002	1.000	Valid HC-Hit Cue: valid cue where following object was a subsequent high confidence hit	OBJ	V	1	0.89961	HC-HIT	 1.2268	1	0.30543
208.002	0.500	Valid HC-Hit Obj: object that was a subsequent high confidence hit and that followed a valid cue	OBJ	V	1	0.89961	HC-HIT	 1.2268	1	0.30543
210.001	1.000	Valid Other Obj Cue: valid cue where following stimulus was an untested or no response object	OBJ	V	1	0.76341	UT	UT	UT	UT
216.001	0.500	Valid Other Obj: stimulus that was an untested or no response object and that followed a valid cue	OBJ	V	1	0.76341	UT	UT	UT	UT
218.001	1.000	Valid HC-Hit Cue: valid cue where following object was a subsequent high confidence hit	OBJ	V	1	0.96322	HC-HIT	 1.8336	1	0.82143
224.001	0.500	Valid HC-Hit Obj: object that was a subsequent high confidence hit and that followed a valid cue	OBJ	V	1	0.96322	HC-HIT	 1.8336	1	0.82143
226.001	1.000	Valid Other Greeble Cue: valid cue where following stimulus was an untested or no response greeble	GRE	V	1	0.93913	UT	UT	UT	UT
232.001	0.500	Valid Other Greeble: stimulus that was an untested or no response greeble and that followed a valid cue	GRE	V	1	0.93913	UT	UT	UT	UT
234.001	1.000	Valid HC-Hit Cue: valid cue where following object was a subsequent high confidence hit	OBJ	V	1	0.95009	HC-HIT	 1.0774	1	0.16902
236.001	0.500	Valid HC-Hit Obj: object that was a subsequent high confidence hit and that followed a valid cue	OBJ	V	1	0.95009	HC-HIT	 1.0774	1	0.16902
238.002	1.000	Valid Other Greeble Cue: valid cue where following stimulus was an untested or no response greeble	GRE	V	1	0.66649	UT	UT	UT	UT
240.002	0.500	Valid Other Greeble: stimulus that was an untested or no response greeble and that followed a valid cue	GRE	V	1	0.66649	UT	UT	UT	UT
242.001	1.000	Invalid HC-Hit Cue: invalid cue where following object was a subsequent high confidence hit	OBJ	NV	1	 1.0579	HC-HIT	 1.0214	1	0.20284
248.001	0.500	Invalid HC-Hit Obj: object that was a subsequent high confidence hit and that followed an invalid cue	OBJ	NV	1	 1.0579	HC-HIT	 1.0214	1	0.20284
252.001	1.000	Valid Other Greeble Cue: valid cue where following stimulus was an untested or no response greeble	GRE	V	NR	NR	UT	UT	UT	UT
258.001	0.500	Valid Other Greeble: stimulus that was an untested or no response greeble and that followed a valid cue	GRE	V	NR	NR	UT	UT	UT	UT
262.001	1.000	Valid Other Obj Cue: valid cue where following stimulus was an untested or no response object	OBJ	V	1	0.78227	UT	UT	UT	UT
266.001	0.500	Valid Other Obj: stimulus that was an untested or no response object and that followed a valid cue	OBJ	V	1	0.78227	UT	UT	UT	UT
268.001	1.000	Valid HC-Hit Cue: valid cue where following object was a subsequent high confidence hit	OBJ	V	1	0.67266	HC-HIT	 1.0866	1	0.29396
272.001	0.500	Valid HC-Hit Obj: object that was a subsequent high confidence hit and that followed a valid cue	OBJ	V	1	0.67266	HC-HIT	 1.0866	1	0.29396
274.001	1.000	Valid Miss Cue: valid cue where following object was a subsequent miss	OBJ	V	1	 1.0019	HC-MISS	 1.1372	UT	UT
278.001	0.500	Valid Miss Obj: object that was a subsequent miss and that followed a valid cue	OBJ	V	1	 1.0019	HC-MISS	 1.1372	UT	UT
282.001	1.000	Valid Other Obj Cue: valid cue where following stimulus was an untested or no response object	OBJ	V	1	0.76018	UT	UT	UT	UT
288.001	0.500	Valid Other Obj: stimulus that was an untested or no response object and that followed a valid cue	OBJ	V	1	0.76018	UT	UT	UT	UT
290.001	1.000	Valid Miss Cue: valid cue where following object was a subsequent miss	OBJ	V	1	  1.179	HC-MISS	 1.4869	UT	UT
292.001	0.500	Valid Miss Obj: object that was a subsequent miss and that followed a valid cue	OBJ	V	1	  1.179	HC-MISS	 1.4869	UT	UT
296.002	1.000	Invalid Other Greeble Cue: invalid cue where following stimulus was an untested or no response greeble	GRE	NV	1	0.66875	UT	UT	UT	UT
298.002	0.500	Invalid Other Greeble: stimulus that was an untested or no response greeble and that followed a invalid cue	GRE	NV	1	0.66875	UT	UT	UT	UT
300.002	1.000	Valid Miss Cue: valid cue where following object was a subsequent miss	OBJ	V	NR	NR	HC-MISS	0.95338	UT	UT
304.002	0.500	Valid Miss Obj: object that was a subsequent miss and that followed a valid cue	OBJ	V	NR	NR	HC-MISS	0.95338	UT	UT
306.001	1.000	Valid HC-Hit Cue: valid cue where following object was a subsequent high confidence hit	OBJ	V	1	 0.8389	HC-HIT	 1.0966	1	0.11458
312.001	0.500	Valid HC-Hit Obj: object that was a subsequent high confidence hit and that followed a valid cue	OBJ	V	1	 0.8389	HC-HIT	 1.0966	1	0.11458
314.001	1.000	Valid HC-Hit Cue: valid cue where following object was a subsequent high confidence hit	OBJ	V	1	 0.6001	HC-HIT	 1.0482	1	0.028107
318.001	0.500	Valid HC-Hit Obj: object that was a subsequent high confidence hit and that followed a valid cue	OBJ	V	1	 0.6001	HC-HIT	 1.0482	1	0.028107
320.002	1.000	Valid Other Greeble Cue: valid cue where following stimulus was an untested or no response greeble	GRE	V	1	 0.6689	UT	UT	UT	UT
322.002	0.500	Valid Other Greeble: stimulus that was an untested or no response greeble and that followed a valid cue	GRE	V	1	 0.6689	UT	UT	UT	UT
324.002	1.000	Valid HC-Hit Cue: valid cue where following object was a subsequent high confidence hit	OBJ	V	1	0.71156	HC-HIT	 1.2413	1	0.22186
326.002	0.500	Valid HC-Hit Obj: object that was a subsequent high confidence hit and that followed a valid cue	OBJ	V	1	0.71156	HC-HIT	 1.2413	1	0.22186
330.001	1.000	Invalid HC-Hit Cue: invalid cue where following object was a subsequent high confidence hit	OBJ	NV	1	 1.0429	HC-HIT	 1.2744	1	0.043234
332.001	0.500	Invalid HC-Hit Obj: object that was a subsequent high confidence hit and that followed an invalid cue	OBJ	NV	1	 1.0429	HC-HIT	 1.2744	1	0.043234
334.001	1.000	Valid HC-Hit Cue: valid cue where following object was a subsequent high confidence hit	OBJ	V	1	0.47319	HC-HIT	0.87599	1	0.2678
338.001	0.500	Valid HC-Hit Obj: object that was a subsequent high confidence hit and that followed a valid cue	OBJ	V	1	0.47319	HC-HIT	0.87599	1	0.2678
340.001	1.000	Valid HC-Hit Cue: valid cue where following object was a subsequent high confidence hit	OBJ	V	1	 1.0053	HC-HIT	 2.3119	NR	NR
344.001	0.500	Valid HC-Hit Obj: object that was a subsequent high confidence hit and that followed a valid cue	OBJ	V	1	 1.0053	HC-HIT	 2.3119	NR	NR
348.002	1.000	Valid Other Greeble Cue: valid cue where following stimulus was an untested or no response greeble	GRE	V	1	 0.6308	UT	UT	UT	UT
350.002	0.500	Valid Other Greeble: stimulus that was an untested or no response greeble and that followed a valid cue	GRE	V	1	 0.6308	UT	UT	UT	UT
352.001	1.000	Invalid HC-Hit Cue: invalid cue where following object was a subsequent high confidence hit	OBJ	NV	1	 0.5822	HC-HIT	 1.5164	0	0.28535
358.001	0.500	Invalid HC-Hit Obj: object that was a subsequent high confidence hit and that followed an invalid cue	OBJ	NV	1	 0.5822	HC-HIT	 1.5164	0	0.28535
360.001	1.000	Valid HC-Hit Cue: valid cue where following object was a subsequent high confidence hit	OBJ	V	1	0.96125	HC-HIT	 1.2945	1	0.27808
364.001	0.500	Valid HC-Hit Obj: object that was a subsequent high confidence hit and that followed a valid cue	OBJ	V	1	0.96125	HC-HIT	 1.2945	1	0.27808
