onset	duration	trial_type	Object_Cond	Validity_Cond	Obj_Accuracy	Obj_Acc_RT	Subseq_Recog	Subseq_Recog_RT	Subseq_Source_Mem_Acc	Subseq_Source_Mem_Acc_RT
4.0002	1.0	Valid Other Greeble Cue: valid cue where following stimulus was an untested or no response greeble	GRE	V	1	0.65374	UT	UT	UT	UT
10.0002	0.5	Valid Other Greeble: stimulus that was an untested or no response greeble and that followed a valid cue	GRE	V	1	0.65374	UT	UT	UT	UT
12.0018	1.0	Valid Miss Cue: valid cue where following object was a subsequent miss	OBJ	V	1	0.69617	HC-MISS	 1.3767	UT	UT
16.0018	0.5	Valid Miss Obj: object that was a subsequent miss and that followed a valid cue	OBJ	V	1	0.69617	HC-MISS	 1.3767	UT	UT
18.000999999999998	1.0	Valid HC-Hit Cue: valid cue where following object was a subsequent high confidence hit	OBJ	V	1	0.72869	HC-HIT	 1.1956	1	0.1664
22.000999999999998	0.5	Valid HC-Hit Obj: object that was a subsequent high confidence hit and that followed a valid cue	OBJ	V	1	0.72869	HC-HIT	 1.1956	1	0.1664
26.0015	1.0	Valid Other Greeble Cue: valid cue where following stimulus was an untested or no response greeble	GRE	V	1	0.61345	UT	UT	UT	UT
32.0015	0.5	Valid Other Greeble: stimulus that was an untested or no response greeble and that followed a valid cue	GRE	V	1	0.61345	UT	UT	UT	UT
34.0015	1.0	Valid Other Obj Cue: valid cue where following stimulus was an untested or no response object	OBJ	V	1	0.6322	UT	UT	UT	UT
38.0015	0.5	Valid Other Obj: stimulus that was an untested or no response object and that followed a valid cue	OBJ	V	1	0.6322	UT	UT	UT	UT
40.001	1.0	Valid HC-Hit Cue: valid cue where following object was a subsequent high confidence hit	OBJ	V	1	0.9267700000000001	HC-HIT	 1.1636	1	0.1693
46.001000000000005	0.5	Valid HC-Hit Obj: object that was a subsequent high confidence hit and that followed a valid cue	OBJ	V	1	0.9267700000000001	HC-HIT	 1.1636	1	0.1693
48.0014	1.0	Invalid Miss Cue: invalid cue where following object was a subsequent miss	OBJ	NV	1	0.64867	HC-MISS	 1.1769	UT	UT
52.0014	0.5	Invalid Miss Obj: object that was a subsequent miss and that followed an invalid cue	OBJ	NV	1	0.64867	HC-MISS	 1.1769	UT	UT
56.0009	1.0	Valid Other Greeble Cue: valid cue where following stimulus was an untested or no response greeble	GRE	V	1	0.61953	UT	UT	UT	UT
58.0009	0.5	Valid Other Greeble: stimulus that was an untested or no response greeble and that followed a valid cue	GRE	V	1	0.61953	UT	UT	UT	UT
60.0012	1.0	Valid LC-Hit Cue: valid cue where following object was a subsequent low confidence hit	OBJ	V	1	0.93424	LC-HIT	 2.6463	0	0.47405
62.0012	0.5	Valid LC-Hit Obj: object that was a subsequent low confidence hit and that followed a valid cue	OBJ	V	1	0.93424	LC-HIT	 2.6463	0	0.47405
64.0011	1.0	Valid Miss Cue: valid cue where following object was a subsequent miss	OBJ	V	1	0.71153	LC-MISS	 2.0531	UT	UT
68.0011	0.5	Valid Miss Obj: object that was a subsequent miss and that followed a valid cue	OBJ	V	1	0.71153	LC-MISS	 2.0531	UT	UT
70.0014	1.0	Valid Miss Cue: valid cue where following object was a subsequent miss	OBJ	V	1	0.91727	LC-MISS	 1.4952	UT	UT
72.0014	0.5	Valid Miss Obj: object that was a subsequent miss and that followed a valid cue	OBJ	V	1	0.91727	LC-MISS	 1.4952	UT	UT
76.0015	1.0	Invalid HC-Hit Cue: invalid cue where following object was a subsequent high confidence hit	OBJ	NV	1	1.2457	HC-HIT	 1.4038	1	0.24219
78.0015	0.5	Invalid HC-Hit Obj: object that was a subsequent high confidence hit and that followed an invalid cue	OBJ	NV	1	1.2457	HC-HIT	 1.4038	1	0.24219
82.0013	1.0	Valid Other Greeble Cue: valid cue where following stimulus was an untested or no response greeble	GRE	V	1	0.73201	UT	UT	UT	UT
88.0013	0.5	Valid Other Greeble: stimulus that was an untested or no response greeble and that followed a valid cue	GRE	V	1	0.73201	UT	UT	UT	UT
92.001	1.0	Invalid Other Greeble Cue: invalid cue where following stimulus was an untested or no response greeble	GRE	NV	1	0.71683	UT	UT	UT	UT
94.001	0.5	Invalid Other Greeble: stimulus that was an untested or no response greeble and that followed a invalid cue	GRE	NV	1	0.71683	UT	UT	UT	UT
96.0014	1.0	Valid Miss Cue: valid cue where following object was a subsequent miss	OBJ	V	1	0.80594	HC-MISS	 1.5455	UT	UT
100.0014	0.5	Valid Miss Obj: object that was a subsequent miss and that followed a valid cue	OBJ	V	1	0.80594	HC-MISS	 1.5455	UT	UT
104.0011	1.0	Valid Other Obj Cue: valid cue where following stimulus was an untested or no response object	OBJ	V	1	0.61269	UT	UT	UT	UT
110.0011	0.5	Valid Other Obj: stimulus that was an untested or no response object and that followed a valid cue	OBJ	V	1	0.61269	UT	UT	UT	UT
112.0011	1.0	Valid Other Greeble Cue: valid cue where following stimulus was an untested or no response greeble	GRE	V	1	0.94094	UT	UT	UT	UT
118.0011	0.5	Valid Other Greeble: stimulus that was an untested or no response greeble and that followed a valid cue	GRE	V	1	0.94094	UT	UT	UT	UT
120.0013	1.0	Valid Miss Cue: valid cue where following object was a subsequent miss	OBJ	V	1	0.63232	HC-MISS	 1.1615	UT	UT
122.0013	0.5	Valid Miss Obj: object that was a subsequent miss and that followed a valid cue	OBJ	V	1	0.63232	HC-MISS	 1.1615	UT	UT
126.001	1.0	Valid Miss Cue: valid cue where following object was a subsequent miss	OBJ	V	1	0.7338600000000001	LC-MISS	0.87246	UT	UT
132.001	0.5	Valid Miss Obj: object that was a subsequent miss and that followed a valid cue	OBJ	V	1	0.7338600000000001	LC-MISS	0.87246	UT	UT
134.0013	1.0	Valid HC-Hit Cue: valid cue where following object was a subsequent high confidence hit	OBJ	V	1	0.68684	HC-HIT	 2.6224	1	0.73986
138.0013	0.5	Valid HC-Hit Obj: object that was a subsequent high confidence hit and that followed a valid cue	OBJ	V	1	0.68684	HC-HIT	 2.6224	1	0.73986
140.0018	1.0	Invalid Miss Cue: invalid cue where following object was a subsequent miss	OBJ	NV	1	0.9318799999999999	HC-MISS	  2.155	UT	UT
142.0018	0.5	Invalid Miss Obj: object that was a subsequent miss and that followed an invalid cue	OBJ	NV	1	0.9318799999999999	HC-MISS	  2.155	UT	UT
144.001	1.0	Valid Other Greeble Cue: valid cue where following stimulus was an untested or no response greeble	GRE	V	1	0.6188899999999999	UT	UT	UT	UT
150.001	0.5	Valid Other Greeble: stimulus that was an untested or no response greeble and that followed a valid cue	GRE	V	1	0.6188899999999999	UT	UT	UT	UT
152.0012	1.0	Valid Other Obj Cue: valid cue where following stimulus was an untested or no response object	OBJ	V	1	0.72175	UT	UT	UT	UT
158.0012	0.5	Valid Other Obj: stimulus that was an untested or no response object and that followed a valid cue	OBJ	V	1	0.72175	UT	UT	UT	UT
160.0017	1.0	Valid HC-Hit Cue: valid cue where following object was a subsequent high confidence hit	OBJ	V	1	0.84667	HC-HIT	 1.2042	0	2.2709
162.0017	0.5	Valid HC-Hit Obj: object that was a subsequent high confidence hit and that followed a valid cue	OBJ	V	1	0.84667	HC-HIT	 1.2042	0	2.2709
164.0015	1.0	Invalid LC-Hit Cue: invalid cue where following object was a subsequent low confidence hit	OBJ	NV	1	0.86059	LC-HIT	 1.7611	0	2.2564
170.0015	0.5	Invalid LC-Hit Obj: object that was a subsequent low confidence hit and that followed an invalid cue	OBJ	NV	1	0.86059	LC-HIT	 1.7611	0	2.2564
174.0013	1.0	Valid HC-Hit Cue: valid cue where following object was a subsequent high confidence hit	OBJ	V	1	0.5495	HC-HIT	 1.0486	0	0.85184
178.0013	0.5	Valid HC-Hit Obj: object that was a subsequent high confidence hit and that followed a valid cue	OBJ	V	1	0.5495	HC-HIT	 1.0486	0	0.85184
180.0017	1.0	Valid Other Greeble Cue: valid cue where following stimulus was an untested or no response greeble	GRE	V	1	0.66547	UT	UT	UT	UT
182.0017	0.5	Valid Other Greeble: stimulus that was an untested or no response greeble and that followed a valid cue	GRE	V	1	0.66547	UT	UT	UT	UT
184.0016	1.0	Valid Miss Cue: valid cue where following object was a subsequent miss	OBJ	V	1	0.8762700000000001	LC-MISS	 1.3042	UT	UT
186.0016	0.5	Valid Miss Obj: object that was a subsequent miss and that followed a valid cue	OBJ	V	1	0.8762700000000001	LC-MISS	 1.3042	UT	UT
188.0016	1.0	Valid Other Obj Cue: valid cue where following stimulus was an untested or no response object	OBJ	V	1	0.67572	UT	UT	UT	UT
194.0016	0.5	Valid Other Obj: stimulus that was an untested or no response object and that followed a valid cue	OBJ	V	1	0.67572	UT	UT	UT	UT
196.0021	1.0	Valid Miss Cue: valid cue where following object was a subsequent miss	OBJ	V	1	0.58249	HC-MISS	 0.9719	UT	UT
200.0021	0.5	Valid Miss Obj: object that was a subsequent miss and that followed a valid cue	OBJ	V	1	0.58249	HC-MISS	 0.9719	UT	UT
202.0012	1.0	Valid HC-Hit Cue: valid cue where following object was a subsequent high confidence hit	OBJ	V	1	0.5767100000000001	HC-HIT	 1.6807	0	0.19828
204.0012	0.5	Valid HC-Hit Obj: object that was a subsequent high confidence hit and that followed a valid cue	OBJ	V	1	0.5767100000000001	HC-HIT	 1.6807	0	0.19828
206.0019	1.0	Invalid HC-Hit Cue: invalid cue where following object was a subsequent high confidence hit	OBJ	NV	1	0.76376	HC-HIT	 2.0681	0	0.57901
210.0019	0.5	Invalid HC-Hit Obj: object that was a subsequent high confidence hit and that followed an invalid cue	OBJ	NV	1	0.76376	HC-HIT	 2.0681	0	0.57901
212.0017	1.0	Valid Miss Cue: valid cue where following object was a subsequent miss	OBJ	V	1	0.65561	HC-MISS	 2.8539	UT	UT
214.0017	0.5	Valid Miss Obj: object that was a subsequent miss and that followed a valid cue	OBJ	V	1	0.65561	HC-MISS	 2.8539	UT	UT
216.002	1.0	Valid Other Greeble Cue: valid cue where following stimulus was an untested or no response greeble	GRE	V	1	0.7040000000000001	UT	UT	UT	UT
220.002	0.5	Valid Other Greeble: stimulus that was an untested or no response greeble and that followed a valid cue	GRE	V	1	0.7040000000000001	UT	UT	UT	UT
222.0013	1.0	Valid Miss Cue: valid cue where following object was a subsequent miss	OBJ	V	1	0.69589	HC-MISS	 2.5892	UT	UT
228.0013	0.5	Valid Miss Obj: object that was a subsequent miss and that followed a valid cue	OBJ	V	1	0.69589	HC-MISS	 2.5892	UT	UT
230.00099999999998	1.0	Valid Miss Cue: valid cue where following object was a subsequent miss	OBJ	V	1	0.87426	HC-MISS	0.82056	UT	UT
234.00099999999998	0.5	Valid Miss Obj: object that was a subsequent miss and that followed a valid cue	OBJ	V	1	0.87426	HC-MISS	0.82056	UT	UT
236.0015	1.0	Valid Miss Cue: valid cue where following object was a subsequent miss	OBJ	V	1	1.1255	HC-MISS	 2.1299	UT	UT
238.0015	0.5	Valid Miss Obj: object that was a subsequent miss and that followed a valid cue	OBJ	V	1	1.1255	HC-MISS	 2.1299	UT	UT
240.0013	1.0	Valid Other Greeble Cue: valid cue where following stimulus was an untested or no response greeble	GRE	V	1	0.64956	UT	UT	UT	UT
242.0013	0.5	Valid Other Greeble: stimulus that was an untested or no response greeble and that followed a valid cue	GRE	V	1	0.64956	UT	UT	UT	UT
244.0018	1.0	Valid HC-Hit Cue: valid cue where following object was a subsequent high confidence hit	OBJ	V	1	0.64082	HC-HIT	0.97568	1	0.1995
250.0018	0.5	Valid HC-Hit Obj: object that was a subsequent high confidence hit and that followed a valid cue	OBJ	V	1	0.64082	HC-HIT	0.97568	1	0.1995
252.0009	1.0	Invalid HC-Hit Cue: invalid cue where following object was a subsequent high confidence hit	OBJ	NV	1	0.9254399999999999	HC-HIT	 1.0678	0	1.1143
254.0009	0.5	Invalid HC-Hit Obj: object that was a subsequent high confidence hit and that followed an invalid cue	OBJ	NV	1	0.9254399999999999	HC-HIT	 1.0678	0	1.1143
260.0018	1.0	Valid Other Obj Cue: valid cue where following stimulus was an untested or no response object	OBJ	V	1	1.725	UT	UT	UT	UT
262.0018	0.5	Valid Other Obj: stimulus that was an untested or no response object and that followed a valid cue	OBJ	V	1	1.725	UT	UT	UT	UT
264.0008	1.0	Valid Miss Cue: valid cue where following object was a subsequent miss	OBJ	V	1	1.1595	HC-MISS	 3.3175	UT	UT
266.0008	0.5	Valid Miss Obj: object that was a subsequent miss and that followed a valid cue	OBJ	V	1	1.1595	HC-MISS	 3.3175	UT	UT
268.0017	1.0	Valid Other Greeble Cue: valid cue where following stimulus was an untested or no response greeble	GRE	V	1	0.72511	UT	UT	UT	UT
270.0017	0.5	Valid Other Greeble: stimulus that was an untested or no response greeble and that followed a valid cue	GRE	V	1	0.72511	UT	UT	UT	UT
272.0013	1.0	Valid HC-Hit Cue: valid cue where following object was a subsequent high confidence hit	OBJ	V	1	0.98705	HC-HIT	 1.6566	1	0.18105
278.0013	0.5	Valid HC-Hit Obj: object that was a subsequent high confidence hit and that followed a valid cue	OBJ	V	1	0.98705	HC-HIT	 1.6566	1	0.18105
282.0018	1.0	Invalid LC-Hit Cue: invalid cue where following object was a subsequent low confidence hit	OBJ	NV	1	1.5047	LC-HIT	 2.8968	0	1.0573
288.0018	0.5	Invalid LC-Hit Obj: object that was a subsequent low confidence hit and that followed an invalid cue	OBJ	NV	1	1.5047	LC-HIT	 2.8968	0	1.0573
290.0015	1.0	Valid Other Greeble Cue: valid cue where following stimulus was an untested or no response greeble	GRE	V	1	0.7133	UT	UT	UT	UT
296.0015	0.5	Valid Other Greeble: stimulus that was an untested or no response greeble and that followed a valid cue	GRE	V	1	0.7133	UT	UT	UT	UT
300.0009	1.0	Valid HC-Hit Cue: valid cue where following object was a subsequent high confidence hit	OBJ	V	1	0.9693799999999999	HC-HIT	0.93138	1	0.50749
304.0009	0.5	Valid HC-Hit Obj: object that was a subsequent high confidence hit and that followed a valid cue	OBJ	V	1	0.9693799999999999	HC-HIT	0.93138	1	0.50749
306.0014	1.0	Valid Other Greeble Cue: valid cue where following stimulus was an untested or no response greeble	GRE	V	1	0.80418	UT	UT	UT	UT
308.0014	0.5	Valid Other Greeble: stimulus that was an untested or no response greeble and that followed a valid cue	GRE	V	1	0.80418	UT	UT	UT	UT
310.002	1.0	Valid HC-Hit Cue: valid cue where following object was a subsequent high confidence hit	OBJ	V	1	0.91594	HC-HIT	 1.0755	1	0.17608
316.002	0.5	Valid HC-Hit Obj: object that was a subsequent high confidence hit and that followed a valid cue	OBJ	V	1	0.91594	HC-HIT	 1.0755	1	0.17608
318.0011	1.0	Invalid HC-Hit Cue: invalid cue where following object was a subsequent high confidence hit	OBJ	NV	1	0.9895799999999999	HC-HIT	 1.3211	1	0.64773
322.0011	0.5	Invalid HC-Hit Obj: object that was a subsequent high confidence hit and that followed an invalid cue	OBJ	NV	1	0.9895799999999999	HC-HIT	 1.3211	1	0.64773
324.0009	1.0	Valid Other Greeble Cue: valid cue where following stimulus was an untested or no response greeble	GRE	V	1	0.63088	UT	UT	UT	UT
328.0009	0.5	Valid Other Greeble: stimulus that was an untested or no response greeble and that followed a valid cue	GRE	V	1	0.63088	UT	UT	UT	UT
330.001	1.0	Valid LC-Hit Cue: valid cue where following object was a subsequent low confidence hit	OBJ	V	1	0.77517	LC-HIT	 2.5046	1	0.80615
336.001	0.5	Valid LC-Hit Obj: object that was a subsequent low confidence hit and that followed a valid cue	OBJ	V	1	0.77517	LC-HIT	 2.5046	1	0.80615
338.0019	1.0	Valid Miss Cue: valid cue where following object was a subsequent miss	OBJ	V	1	0.76003	HC-MISS	0.83843	UT	UT
342.0019	0.5	Valid Miss Obj: object that was a subsequent miss and that followed a valid cue	OBJ	V	1	0.76003	HC-MISS	0.83843	UT	UT
344.001	1.0	Valid Other Greeble Cue: valid cue where following stimulus was an untested or no response greeble	GRE	V	1	0.6433800000000001	UT	UT	UT	UT
348.001	0.5	Valid Other Greeble: stimulus that was an untested or no response greeble and that followed a valid cue	GRE	V	1	0.6433800000000001	UT	UT	UT	UT
350.0015	1.0	Invalid Other Greeble Cue: invalid cue where following stimulus was an untested or no response greeble	GRE	NV	1	0.9640299999999999	UT	UT	UT	UT
354.0015	0.5	Invalid Other Greeble: stimulus that was an untested or no response greeble and that followed a invalid cue	GRE	NV	1	0.9640299999999999	UT	UT	UT	UT
356.001	1.0	Valid HC-Hit Cue: valid cue where following object was a subsequent high confidence hit	OBJ	V	1	0.6140800000000001	HC-HIT	 2.0628	0	0.17963
360.001	0.5	Valid HC-Hit Obj: object that was a subsequent high confidence hit and that followed a valid cue	OBJ	V	1	0.6140800000000001	HC-HIT	 2.0628	0	0.17963
