onset	duration	trial_type	Object_Cond	Validity_Cond	Obj_Accuracy	Obj_Acc_RT	Subseq_Recog	Subseq_Recog_RT	Subseq_Source_Mem_Acc	Subseq_Source_Mem_Acc_RT
4.002	1.000	Valid Other Obj Cue: valid cue where following stimulus was an untested or no response object	OBJ	V	1	 1.6451	UT	UT	UT	UT
6.002	0.500	Valid Other Obj: stimulus that was an untested or no response object and that followed a valid cue	OBJ	V	1	 1.6451	UT	UT	UT	UT
8.085	1.000	Valid Miss Cue: valid cue where following object was a subsequent miss	OBJ	V	1	 1.3759	LC-MISS	 1.3267	UT	UT
10.085	0.500	Valid Miss Obj: object that was a subsequent miss and that followed a valid cue	OBJ	V	1	 1.3759	LC-MISS	 1.3267	UT	UT
12.067	1.000	Valid Other Greeble Cue: valid cue where following stimulus was an untested or no response greeble	GRE	V	1	0.88001	UT	UT	UT	UT
14.067	0.500	Valid Other Greeble: stimulus that was an untested or no response greeble and that followed a valid cue	GRE	V	1	0.88001	UT	UT	UT	UT
16.060	1.000	Invalid LC-Hit Cue: invalid cue where following object was a subsequent low confidence hit	OBJ	NV	1	 1.3813	LC-HIT	 1.6917	0	0.48475
20.060	0.500	Invalid LC-Hit Obj: object that was a subsequent low confidence hit and that followed an invalid cue	OBJ	NV	1	 1.3813	LC-HIT	 1.6917	0	0.48475
22.058	1.000	Valid Miss Cue: valid cue where following object was a subsequent miss	OBJ	V	1	 1.0597	LC-MISS	 1.4947	UT	UT
24.058	0.500	Valid Miss Obj: object that was a subsequent miss and that followed a valid cue	OBJ	V	1	 1.0597	LC-MISS	 1.4947	UT	UT
26.061	1.000	Valid HC-Hit Cue: valid cue where following object was a subsequent high confidence hit	OBJ	V	1	 0.9116	HC-HIT	 1.1489	1	0.21919
30.061	0.500	Valid HC-Hit Obj: object that was a subsequent high confidence hit and that followed a valid cue	OBJ	V	1	 0.9116	HC-HIT	 1.1489	1	0.21919
32.057	1.000	Valid Other Greeble Cue: valid cue where following stimulus was an untested or no response greeble	GRE	V	1	0.78945	UT	UT	UT	UT
36.057	0.500	Valid Other Greeble: stimulus that was an untested or no response greeble and that followed a valid cue	GRE	V	1	0.78945	UT	UT	UT	UT
38.062	1.000	Valid Other Obj Cue: valid cue where following stimulus was an untested or no response object	OBJ	V	1	0.86634	UT	UT	UT	UT
42.062	0.500	Valid Other Obj: stimulus that was an untested or no response object and that followed a valid cue	OBJ	V	1	0.86634	UT	UT	UT	UT
44.058	1.000	Valid HC-Hit Cue: valid cue where following object was a subsequent high confidence hit	OBJ	V	1	 1.2885	HC-HIT	 1.1368	1	0.52653
46.058	0.500	Valid HC-Hit Obj: object that was a subsequent high confidence hit and that followed a valid cue	OBJ	V	1	 1.2885	HC-HIT	 1.1368	1	0.52653
50.060	1.000	Valid LC-Hit Cue: valid cue where following object was a subsequent low confidence hit	OBJ	V	1	0.89417	LC-HIT	 1.9235	0	0.27311
56.060	0.500	Valid LC-Hit Obj: object that was a subsequent low confidence hit and that followed a valid cue	OBJ	V	1	0.89417	LC-HIT	 1.9235	0	0.27311
58.060	1.000	Valid Other Greeble Cue: valid cue where following stimulus was an untested or no response greeble	GRE	V	1	 1.0262	UT	UT	UT	UT
62.060	0.500	Valid Other Greeble: stimulus that was an untested or no response greeble and that followed a valid cue	GRE	V	1	 1.0262	UT	UT	UT	UT
64.059	1.000	Invalid Miss Cue: invalid cue where following object was a subsequent miss	OBJ	NV	1	0.82342	LC-MISS	 1.4975	UT	UT
68.059	0.500	Invalid Miss Obj: object that was a subsequent miss and that followed an invalid cue	OBJ	NV	1	0.82342	LC-MISS	 1.4975	UT	UT
70.058	1.000	Valid HC-Hit Cue: valid cue where following object was a subsequent high confidence hit	OBJ	V	NR	NR	HC-HIT	 1.4644	1	1.0936
74.058	0.500	Valid HC-Hit Obj: object that was a subsequent high confidence hit and that followed a valid cue	OBJ	V	NR	NR	HC-HIT	 1.4644	1	1.0936
76.059	1.000	Valid Other Greeble Cue: valid cue where following stimulus was an untested or no response greeble	GRE	V	1	0.93183	UT	UT	UT	UT
82.059	0.500	Valid Other Greeble: stimulus that was an untested or no response greeble and that followed a valid cue	GRE	V	1	0.93183	UT	UT	UT	UT
84.060	1.000	Valid Miss Cue: valid cue where following object was a subsequent miss	OBJ	V	1	0.86442	LC-MISS	 1.5483	UT	UT
88.060	0.500	Valid Miss Obj: object that was a subsequent miss and that followed a valid cue	OBJ	V	1	0.86442	LC-MISS	 1.5483	UT	UT
90.057	1.000	Valid Other Obj Cue: valid cue where following stimulus was an untested or no response object	OBJ	V	1	0.98942	UT	UT	UT	UT
96.057	0.500	Valid Other Obj: stimulus that was an untested or no response object and that followed a valid cue	OBJ	V	1	0.98942	UT	UT	UT	UT
100.060	1.000	Valid Other Greeble Cue: valid cue where following stimulus was an untested or no response greeble	GRE	V	1	0.84931	UT	UT	UT	UT
106.060	0.500	Valid Other Greeble: stimulus that was an untested or no response greeble and that followed a valid cue	GRE	V	1	0.84931	UT	UT	UT	UT
108.058	1.000	Valid Miss Cue: valid cue where following object was a subsequent miss	OBJ	V	1	 1.6632	LC-MISS	 1.4969	UT	UT
110.058	0.500	Valid Miss Obj: object that was a subsequent miss and that followed a valid cue	OBJ	V	1	 1.6632	LC-MISS	 1.4969	UT	UT
112.059	1.000	Valid HC-Hit Cue: valid cue where following object was a subsequent high confidence hit	OBJ	V	1	 1.0989	HC-HIT	 1.6826	1	0.79757
118.059	0.500	Valid HC-Hit Obj: object that was a subsequent high confidence hit and that followed a valid cue	OBJ	V	1	 1.0989	HC-HIT	 1.6826	1	0.79757
120.059	1.000	Valid HC-Hit Cue: valid cue where following object was a subsequent high confidence hit	OBJ	V	NR	NR	HC-HIT	0.92779	1	0.41522
124.059	0.500	Valid HC-Hit Obj: object that was a subsequent high confidence hit and that followed a valid cue	OBJ	V	NR	NR	HC-HIT	0.92779	1	0.41522
126.060	1.000	Invalid Miss Cue: invalid cue where following object was a subsequent miss	OBJ	NV	1	 1.3591	LC-MISS	 1.9199	UT	UT
132.060	0.500	Invalid Miss Obj: object that was a subsequent miss and that followed an invalid cue	OBJ	NV	1	 1.3591	LC-MISS	 1.9199	UT	UT
136.060	1.000	Valid HC-Hit Cue: valid cue where following object was a subsequent high confidence hit	OBJ	V	1	0.91412	HC-HIT	 1.4521	1	1.3572
142.060	0.500	Valid HC-Hit Obj: object that was a subsequent high confidence hit and that followed a valid cue	OBJ	V	1	0.91412	HC-HIT	 1.4521	1	1.3572
144.059	1.000	Invalid HC-Hit Cue: invalid cue where following object was a subsequent high confidence hit	OBJ	NV	1	0.78389	HC-HIT	0.92646	1	0.22444
150.059	0.500	Invalid HC-Hit Obj: object that was a subsequent high confidence hit and that followed an invalid cue	OBJ	NV	1	0.78389	HC-HIT	0.92646	1	0.22444
152.060	1.000	Valid Miss Cue: valid cue where following object was a subsequent miss	OBJ	V	1	0.92423	LC-MISS	 1.0824	UT	UT
156.060	0.500	Valid Miss Obj: object that was a subsequent miss and that followed a valid cue	OBJ	V	1	0.92423	LC-MISS	 1.0824	UT	UT
160.062	1.000	Valid Other Greeble Cue: valid cue where following stimulus was an untested or no response greeble	GRE	V	1	  1.295	UT	UT	UT	UT
166.062	0.500	Valid Other Greeble: stimulus that was an untested or no response greeble and that followed a valid cue	GRE	V	1	  1.295	UT	UT	UT	UT
168.072	1.000	Invalid Other Greeble Cue: invalid cue where following stimulus was an untested or no response greeble	GRE	NV	1	0.90221	UT	UT	UT	UT
174.072	0.500	Invalid Other Greeble: stimulus that was an untested or no response greeble and that followed a invalid cue	GRE	NV	1	0.90221	UT	UT	UT	UT
176.060	1.000	Valid HC-Hit Cue: valid cue where following object was a subsequent high confidence hit	OBJ	V	1	 1.0974	HC-HIT	 1.0353	1	0.41997
178.060	0.500	Valid HC-Hit Obj: object that was a subsequent high confidence hit and that followed a valid cue	OBJ	V	1	 1.0974	HC-HIT	 1.0353	1	0.41997
180.058	1.000	Valid Miss Cue: valid cue where following object was a subsequent miss	OBJ	V	1	 1.4017	LC-MISS	 2.9549	UT	UT
184.058	0.500	Valid Miss Obj: object that was a subsequent miss and that followed a valid cue	OBJ	V	1	 1.4017	LC-MISS	 2.9549	UT	UT
186.060	1.000	Invalid Miss Cue: invalid cue where following object was a subsequent miss	OBJ	NV	1	 1.2474	LC-MISS	 1.1727	UT	UT
188.060	0.500	Invalid Miss Obj: object that was a subsequent miss and that followed an invalid cue	OBJ	NV	1	 1.2474	LC-MISS	 1.1727	UT	UT
190.060	1.000	Valid Miss Cue: valid cue where following object was a subsequent miss	OBJ	V	NR	NR	LC-MISS	 2.8611	UT	UT
194.060	0.500	Valid Miss Obj: object that was a subsequent miss and that followed a valid cue	OBJ	V	NR	NR	LC-MISS	 2.8611	UT	UT
196.060	1.000	Valid Other Greeble Cue: valid cue where following stimulus was an untested or no response greeble	GRE	V	1	0.93964	UT	UT	UT	UT
198.060	0.500	Valid Other Greeble: stimulus that was an untested or no response greeble and that followed a valid cue	GRE	V	1	0.93964	UT	UT	UT	UT
200.061	1.000	Valid Other Obj Cue: valid cue where following stimulus was an untested or no response object	OBJ	V	1	 1.1591	UT	UT	UT	UT
206.061	0.500	Valid Other Obj: stimulus that was an untested or no response object and that followed a valid cue	OBJ	V	1	 1.1591	UT	UT	UT	UT
208.059	1.000	Valid Other Greeble Cue: valid cue where following stimulus was an untested or no response greeble	GRE	V	1	0.95227	UT	UT	UT	UT
210.059	0.500	Valid Other Greeble: stimulus that was an untested or no response greeble and that followed a valid cue	GRE	V	1	0.95227	UT	UT	UT	UT
212.059	1.000	Invalid HC-Hit Cue: invalid cue where following object was a subsequent high confidence hit	OBJ	NV	1	0.96335	HC-HIT	 1.5101	1	0.24183
216.059	0.500	Invalid HC-Hit Obj: object that was a subsequent high confidence hit and that followed an invalid cue	OBJ	NV	1	0.96335	HC-HIT	 1.5101	1	0.24183
220.058	1.000	Valid Miss Cue: valid cue where following object was a subsequent miss	OBJ	V	1	0.92739	LC-MISS	 2.4526	UT	UT
226.058	0.500	Valid Miss Obj: object that was a subsequent miss and that followed a valid cue	OBJ	V	1	0.92739	LC-MISS	 2.4526	UT	UT
230.061	1.000	Valid HC-Hit Cue: valid cue where following object was a subsequent high confidence hit	OBJ	V	1	0.79005	HC-HIT	 1.6805	1	0.52351
234.061	0.500	Valid HC-Hit Obj: object that was a subsequent high confidence hit and that followed a valid cue	OBJ	V	1	0.79005	HC-HIT	 1.6805	1	0.52351
240.059	1.000	Invalid LC-Hit Cue: invalid cue where following object was a subsequent low confidence hit	OBJ	NV	1	 1.0354	LC-HIT	 2.0388	1	0.86712
242.059	0.500	Invalid LC-Hit Obj: object that was a subsequent low confidence hit and that followed an invalid cue	OBJ	NV	1	 1.0354	LC-HIT	 2.0388	1	0.86712
246.060	1.000	Valid Other Greeble Cue: valid cue where following stimulus was an untested or no response greeble	GRE	V	1	 1.9243	UT	UT	UT	UT
252.060	0.500	Valid Other Greeble: stimulus that was an untested or no response greeble and that followed a valid cue	GRE	V	1	 1.9243	UT	UT	UT	UT
256.060	1.000	Valid HC-Hit Cue: valid cue where following object was a subsequent high confidence hit	OBJ	V	NR	NR	HC-HIT	 1.3302	1	0.70112
262.060	0.500	Valid HC-Hit Obj: object that was a subsequent high confidence hit and that followed a valid cue	OBJ	V	NR	NR	HC-HIT	 1.3302	1	0.70112
264.060	1.000	Valid Other Greeble Cue: valid cue where following stimulus was an untested or no response greeble	GRE	V	1	0.88101	UT	UT	UT	UT
266.060	0.500	Valid Other Greeble: stimulus that was an untested or no response greeble and that followed a valid cue	GRE	V	1	0.88101	UT	UT	UT	UT
268.058	1.000	Invalid Miss Cue: invalid cue where following object was a subsequent miss	OBJ	NV	1	0.78238	LC-MISS	 3.0769	UT	UT
270.058	0.500	Invalid Miss Obj: object that was a subsequent miss and that followed an invalid cue	OBJ	NV	1	0.78238	LC-MISS	 3.0769	UT	UT
276.062	1.000	Valid LC-Hit Cue: valid cue where following object was a subsequent low confidence hit	OBJ	V	1	0.78016	LC-HIT	  2.068	1	0.62452
278.062	0.500	Valid LC-Hit Obj: object that was a subsequent low confidence hit and that followed a valid cue	OBJ	V	1	0.78016	LC-HIT	  2.068	1	0.62452
280.063	1.000	Valid Other Greeble Cue: valid cue where following stimulus was an untested or no response greeble	GRE	V	1	0.96856	UT	UT	UT	UT
282.063	0.500	Valid Other Greeble: stimulus that was an untested or no response greeble and that followed a valid cue	GRE	V	1	0.96856	UT	UT	UT	UT
284.060	1.000	Valid LC-Hit Cue: valid cue where following object was a subsequent low confidence hit	OBJ	V	1	0.83064	LC-HIT	  1.773	0	0.50302
288.060	0.500	Valid LC-Hit Obj: object that was a subsequent low confidence hit and that followed a valid cue	OBJ	V	1	0.83064	LC-HIT	  1.773	0	0.50302
290.060	1.000	Valid Other Obj Cue: valid cue where following stimulus was an untested or no response object	OBJ	V	1	0.95624	UT	UT	UT	UT
296.060	0.500	Valid Other Obj: stimulus that was an untested or no response object and that followed a valid cue	OBJ	V	1	0.95624	UT	UT	UT	UT
298.062	1.000	Valid Other Greeble Cue: valid cue where following stimulus was an untested or no response greeble	GRE	V	1	 1.5122	UT	UT	UT	UT
304.062	0.500	Valid Other Greeble: stimulus that was an untested or no response greeble and that followed a valid cue	GRE	V	1	 1.5122	UT	UT	UT	UT
306.060	1.000	Valid Other Greeble Cue: valid cue where following stimulus was an untested or no response greeble	GRE	V	1	0.83974	UT	UT	UT	UT
308.060	0.500	Valid Other Greeble: stimulus that was an untested or no response greeble and that followed a valid cue	GRE	V	1	0.83974	UT	UT	UT	UT
310.060	1.000	Valid Miss Cue: valid cue where following object was a subsequent miss	OBJ	V	NR	NR	HC-MISS	 2.2479	UT	UT
316.060	0.500	Valid Miss Obj: object that was a subsequent miss and that followed a valid cue	OBJ	V	NR	NR	HC-MISS	 2.2479	UT	UT
318.066	1.000	Valid Other Obj Cue: valid cue where following stimulus was an untested or no response object	OBJ	V	1	  1.065	UT	UT	UT	UT
322.066	0.500	Valid Other Obj: stimulus that was an untested or no response object and that followed a valid cue	OBJ	V	1	  1.065	UT	UT	UT	UT
324.059	1.000	Invalid Other Greeble Cue: invalid cue where following stimulus was an untested or no response greeble	GRE	NV	1	0.94168	UT	UT	UT	UT
330.059	0.500	Invalid Other Greeble: stimulus that was an untested or no response greeble and that followed a invalid cue	GRE	NV	1	0.94168	UT	UT	UT	UT
332.059	1.000	Valid Miss Cue: valid cue where following object was a subsequent miss	OBJ	V	NR	NR	LC-MISS	 3.1897	UT	UT
334.059	0.500	Valid Miss Obj: object that was a subsequent miss and that followed a valid cue	OBJ	V	NR	NR	LC-MISS	 3.1897	UT	UT
336.062	1.000	Valid Other Greeble Cue: valid cue where following stimulus was an untested or no response greeble	GRE	V	1	0.88165	UT	UT	UT	UT
340.062	0.500	Valid Other Greeble: stimulus that was an untested or no response greeble and that followed a valid cue	GRE	V	1	0.88165	UT	UT	UT	UT
342.062	1.000	Valid HC-Hit Cue: valid cue where following object was a subsequent high confidence hit	OBJ	V	1	 1.1282	HC-HIT	 1.0975	1	0.67994
346.062	0.500	Valid HC-Hit Obj: object that was a subsequent high confidence hit and that followed a valid cue	OBJ	V	1	 1.1282	HC-HIT	 1.0975	1	0.67994
350.060	1.000	Valid HC-Hit Cue: valid cue where following object was a subsequent high confidence hit	OBJ	V	1	 1.1635	HC-HIT	  1.613	1	0.57779
354.060	0.500	Valid HC-Hit Obj: object that was a subsequent high confidence hit and that followed a valid cue	OBJ	V	1	 1.1635	HC-HIT	  1.613	1	0.57779
356.060	1.000	Valid Miss Cue: valid cue where following object was a subsequent miss	OBJ	V	1	0.71592	LC-MISS	 1.0771	UT	UT
358.060	0.500	Valid Miss Obj: object that was a subsequent miss and that followed a valid cue	OBJ	V	1	0.71592	LC-MISS	 1.0771	UT	UT
360.060	1.000	Valid HC-Hit Cue: valid cue where following object was a subsequent high confidence hit	OBJ	V	1	  1.352	HC-HIT	 1.3893	1	1.7355
362.060	0.500	Valid HC-Hit Obj: object that was a subsequent high confidence hit and that followed a valid cue	OBJ	V	1	  1.352	HC-HIT	 1.3893	1	1.7355
