onset	duration	trial_type	Response	Stimulus	RT
4.417	0.2	auditory standard stimulus presentation	n/a	n/a	n/a
7.229	0.2	auditory standard stimulus presentation	n/a	n/a	n/a
9.663	0.2	auditory standard stimulus presentation	n/a	n/a	n/a
12.491	0.2	auditory standard stimulus presentation	0.0	standard	n/a
15.321	0.2	auditory standard stimulus presentation	0.0	standard	n/a
17.554	0.2	auditory standard stimulus presentation	0.0	standard	n/a
19.789	0.2	auditory standard stimulus presentation	0.0	standard	n/a
22.254	0.2	auditory standard stimulus presentation	0.0	standard	n/a
25.299	0.2	auditory standard stimulus presentation	0.0	standard	n/a
28.326	0.2	auditory standard stimulus presentation	0.0	standard	n/a
31.173	0.2	auditory standard stimulus presentation	0.0	standard	n/a
34.2	0.2	auditory standard stimulus presentation	0.0	standard	n/a
36.831	0.2	auditory standard stimulus presentation	0.0	standard	n/a
39.661	0.2	auditory standard stimulus presentation	0.0	standard	n/a
42.291	0.41	behavioral response time following auditory oddball stimulus onset	1.0	target	n/a
42.291	0.2	auditory oddball stimulus presentation	1.0	target	n/a
44.724	0.2	auditory oddball stimulus presentation	1.0	target	n/a
44.724	0.274	behavioral response time following auditory oddball stimulus onset	1.0	target	n/a
47.156	0.2	auditory oddball stimulus presentation	1.0	target	n/a
47.156	0.335	behavioral response time following auditory oddball stimulus onset	1.0	target	n/a
49.588	0.2	auditory standard stimulus presentation	0.0	standard	n/a
51.624	0.2	auditory standard stimulus presentation	0.0	standard	n/a
54.073	0.2	auditory standard stimulus presentation	0.0	standard	n/a
56.307	0.2	auditory standard stimulus presentation	0.0	standard	n/a
59.136	0.362	behavioral response time following auditory oddball stimulus onset	1.0	target	n/a
59.136	0.2	auditory oddball stimulus presentation	1.0	target	n/a
62.18	0.2	auditory oddball stimulus presentation	1.0	target	n/a
62.18	0.417	behavioral response time following auditory oddball stimulus onset	1.0	target	n/a
64.629	0.2	auditory standard stimulus presentation	0.0	standard	n/a
66.862	0.2	auditory standard stimulus presentation	0.0	standard	n/a
69.493	0.2	auditory standard stimulus presentation	0.0	standard	n/a
71.943	0.2	auditory standard stimulus presentation	0.0	standard	n/a
74.194	0.2	auditory standard stimulus presentation	0.0	standard	n/a
77.039	0.2	auditory standard stimulus presentation	0.0	standard	n/a
79.29	0.2	auditory oddball stimulus presentation	1.0	target	n/a
79.29	0.352	behavioral response time following auditory oddball stimulus onset	1.0	target	n/a
82.317	0.505	behavioral response time following auditory oddball stimulus onset	1.0	target	n/a
82.317	0.2	auditory oddball stimulus presentation	1.0	target	n/a
84.75	0.2	auditory standard stimulus presentation	0.0	standard	n/a
87.778	0.2	auditory standard stimulus presentation	0.0	standard	n/a
90.806	0.2	auditory standard stimulus presentation	0.0	standard	n/a
93.834	0.2	auditory standard stimulus presentation	0.0	standard	n/a
96.679	0.2	auditory standard stimulus presentation	0.0	standard	n/a
99.724	0.2	auditory standard stimulus presentation	0.0	standard	n/a
101.743	0.2	auditory standard stimulus presentation	0.0	standard	n/a
103.779	0.2	auditory standard stimulus presentation	0.0	standard	n/a
106.624	0.2	auditory standard stimulus presentation	0.0	standard	n/a
109.47	0.2	auditory standard stimulus presentation	0.0	standard	n/a
112.316	0.2	auditory standard stimulus presentation	0.0	standard	n/a
115.162	0.2	auditory standard stimulus presentation	0.0	standard	n/a
117.595	0.2	auditory standard stimulus presentation	0.0	standard	n/a
120.44	0.2	auditory standard stimulus presentation	0.0	standard	n/a
122.492	0.2	auditory standard stimulus presentation	0.0	standard	n/a
125.537	0.2	auditory standard stimulus presentation	0.0	standard	n/a
127.986	0.2	auditory standard stimulus presentation	0.0	standard	n/a
130.832	0.2	auditory standard stimulus presentation	0.0	standard	n/a
133.462	0.447	behavioral response time following auditory oddball stimulus onset	1.0	target	n/a
133.462	0.2	auditory oddball stimulus presentation	1.0	target	n/a
135.514	0.2	auditory standard stimulus presentation	0.0	standard	n/a
138.542	0.2	auditory standard stimulus presentation	0.0	standard	n/a
140.775	0.2	auditory standard stimulus presentation	0.0	standard	n/a
143.009	0.425	behavioral response time following auditory oddball stimulus onset	1.0	target	n/a
143.009	0.2	auditory oddball stimulus presentation	1.0	target	n/a
146.054	0.388	behavioral response time following auditory oddball stimulus onset	1.0	target	n/a
146.054	0.2	auditory oddball stimulus presentation	1.0	target	n/a
149.099	0.2	auditory standard stimulus presentation	0.0	standard	n/a
151.73	0.2	auditory standard stimulus presentation	0.0	standard	n/a
154.376	0.2	auditory standard stimulus presentation	0.0	standard	n/a
157.421	0.2	auditory standard stimulus presentation	0.0	standard	n/a
160.268	0.2	auditory standard stimulus presentation	0.0	standard	n/a
162.32	0.2	auditory standard stimulus presentation	0.0	standard	n/a
165.148	0.2	auditory oddball stimulus presentation	1.0	target	n/a
165.148	0.46	behavioral response time following auditory oddball stimulus onset	1.0	target	n/a
167.598	0.2	auditory standard stimulus presentation	0.0	standard	n/a
170.443	0.2	auditory standard stimulus presentation	0.0	standard	n/a
172.693	0.2	auditory standard stimulus presentation	0.0	standard	n/a
174.944	0.397	behavioral response time following auditory oddball stimulus onset	1.0	target	n/a
174.944	0.2	auditory oddball stimulus presentation	1.0	target	n/a
176.98	0.2	auditory standard stimulus presentation	0.0	standard	n/a
179.015	0.2	auditory standard stimulus presentation	0.0	standard	n/a
182.043	0.375	behavioral response time following auditory oddball stimulus onset	1.0	target	n/a
182.043	0.2	auditory oddball stimulus presentation	1.0	target	n/a
184.689	0.2	auditory standard stimulus presentation	0.0	standard	n/a
186.742	0.2	auditory standard stimulus presentation	0.0	standard	n/a
188.975	0.2	auditory standard stimulus presentation	0.0	standard	n/a
191.408	0.463	behavioral response time following auditory oddball stimulus onset	1.0	target	n/a
191.408	0.2	auditory oddball stimulus presentation	1.0	target	n/a
194.254	0.2	auditory standard stimulus presentation	0.0	standard	n/a
196.505	0.2	auditory standard stimulus presentation	0.0	standard	n/a
198.953	0.2	auditory standard stimulus presentation	0.0	standard	n/a
201.203	0.2	auditory standard stimulus presentation	0.0	standard	n/a
203.834	0.2	auditory standard stimulus presentation	0.0	standard	n/a
206.465	0.388	behavioral response time following auditory oddball stimulus onset	1.0	target	n/a
206.465	0.2	auditory oddball stimulus presentation	1.0	target	n/a
209.096	0.2	auditory standard stimulus presentation	0.0	standard	n/a
211.347	0.2	auditory standard stimulus presentation	0.0	standard	n/a
214.176	0.518	behavioral response time following auditory oddball stimulus onset	1.0	target	n/a
214.176	0.2	auditory oddball stimulus presentation	1.0	target	n/a
216.211	0.393	behavioral response time following auditory oddball stimulus onset	1.0	target	n/a
216.211	0.2	auditory oddball stimulus presentation	1.0	target	n/a
218.246	0.2	auditory standard stimulus presentation	0.0	standard	n/a
220.678	0.2	auditory standard stimulus presentation	0.0	standard	n/a
222.714	0.2	auditory standard stimulus presentation	0.0	standard	n/a
224.748	0.2	auditory standard stimulus presentation	0.0	standard	n/a
227.379	0.2	auditory standard stimulus presentation	0.0	standard	n/a
229.631	0.2	auditory oddball stimulus presentation	1.0	target	n/a
229.631	0.764	behavioral response time following auditory oddball stimulus onset	1.0	target	n/a
232.063	0.2	auditory standard stimulus presentation	0.0	standard	n/a
234.892	0.2	auditory standard stimulus presentation	0.0	standard	n/a
236.928	0.2	auditory standard stimulus presentation	0.0	standard	n/a
239.557	0.589	behavioral response time following auditory oddball stimulus onset	1.0	target	n/a
239.557	0.2	auditory oddball stimulus presentation	1.0	target	n/a
242.602	0.2	auditory standard stimulus presentation	0.0	standard	n/a
244.637	0.2	auditory standard stimulus presentation	0.0	standard	n/a
246.69	0.2	auditory standard stimulus presentation	0.0	standard	n/a
249.121	0.2	auditory standard stimulus presentation	0.0	standard	n/a
252.017	0.2	auditory standard stimulus presentation	0.0	standard	n/a
254.847	0.2	auditory standard stimulus presentation	0.0	standard	n/a
257.08	0.538	behavioral response time following auditory oddball stimulus onset	1.0	target	n/a
257.08	0.2	auditory oddball stimulus presentation	1.0	target	n/a
260.126	0.2	auditory standard stimulus presentation	0.0	standard	n/a
262.558	0.2	auditory standard stimulus presentation	0.0	standard	n/a
265.386	0.2	auditory standard stimulus presentation	0.0	standard	n/a
267.803	0.2	auditory standard stimulus presentation	0.0	standard	n/a
270.831	0.2	auditory standard stimulus presentation	0.0	standard	n/a
272.866	0.2	auditory standard stimulus presentation	0.0	standard	n/a
275.695	0.2	auditory oddball stimulus presentation	1.0	target	n/a
275.695	0.355	behavioral response time following auditory oddball stimulus onset	1.0	target	n/a
278.739	0.2	auditory standard stimulus presentation	0.0	standard	n/a
281.371	0.2	auditory standard stimulus presentation	0.0	standard	n/a
284.415	0.2	auditory standard stimulus presentation	0.0	standard	n/a
286.847	0.2	auditory oddball stimulus presentation	1.0	target	n/a
286.847	0.49	behavioral response time following auditory oddball stimulus onset	1.0	target	n/a
289.875	0.2	auditory standard stimulus presentation	0.0	standard	n/a
291.91	0.2	auditory standard stimulus presentation	0.0	standard	n/a
294.74	0.2	auditory standard stimulus presentation	0.0	standard	n/a
297.205	0.2	auditory standard stimulus presentation	0.0	standard	n/a
299.836	0.2	auditory standard stimulus presentation	0.0	standard	n/a
302.665	0.2	auditory standard stimulus presentation	0.0	standard	n/a
305.694	n/a	n/a	1.0	target	n/a
308.142	0.2	auditory oddball stimulus presentation	1.0	target	n/a
308.142	0.356	behavioral response time following auditory oddball stimulus onset	1.0	target	n/a
310.591	0.358	behavioral response time following auditory oddball stimulus onset	1.0	target	n/a
310.591	0.2	auditory oddball stimulus presentation	1.0	target	n/a
313.437	0.2	auditory standard stimulus presentation	0.0	standard	n/a
315.869	0.2	auditory standard stimulus presentation	0.0	standard	n/a
318.103	0.2	auditory standard stimulus presentation	0.0	standard	n/a
320.734	0.2	auditory standard stimulus presentation	0.0	standard	n/a
323.183	0.2	auditory standard stimulus presentation	0.0	standard	n/a
n/a	n/a	n/a	4.417	0	standard
n/a	n/a	n/a	7.229	0	standard
n/a	n/a	n/a	9.663	0	standard
