onset	duration	trial_type	Response	Stimulus	RT
5.16	0.2	visual standard stimulus presentation	n/a	n/a	n/a
7.179	0.2	visual standard stimulus presentation	n/a	n/a	n/a
9.992	0.52	behavioral response time following visual oddball stimulus onset	n/a	n/a	n/a
9.992	0.2	visual oddball stimulus presentation	n/a	n/a	n/a
12.59	0.2	visual oddball stimulus presentation	1.0	target	n/a
12.59	0.607	behavioral response time following visual oddball stimulus onset	1.0	target	n/a
15.387	0.2	visual standard stimulus presentation	0.0	standard	n/a
18.382	0.2	visual standard stimulus presentation	0.0	standard	n/a
20.98	0.2	visual standard stimulus presentation	0.0	standard	n/a
23.776	0.2	visual standard stimulus presentation	0.0	standard	n/a
26.77	0.2	visual standard stimulus presentation	0.0	standard	n/a
29.369	0.2	visual standard stimulus presentation	0.0	standard	n/a
31.37	0.2	visual standard stimulus presentation	0.0	standard	n/a
33.968	0.411	behavioral response time following visual oddball stimulus onset	1.0	target	n/a
33.968	0.2	visual oddball stimulus presentation	1.0	target	n/a
36.963	0.2	visual standard stimulus presentation	0.0	standard	n/a
39.362	0.2	visual standard stimulus presentation	0.0	standard	n/a
41.96	0.2	visual standard stimulus presentation	0.0	standard	n/a
44.558	0.2	visual standard stimulus presentation	0.0	standard	n/a
46.758	0.2	visual standard stimulus presentation	0.0	standard	n/a
49.554	0.2	visual standard stimulus presentation	0.0	standard	n/a
51.954	0.2	visual standard stimulus presentation	0.0	standard	n/a
54.552	0.2	visual standard stimulus presentation	0.0	standard	n/a
56.951	0.2	visual standard stimulus presentation	0.0	standard	n/a
59.151	0.2	visual standard stimulus presentation	0.0	standard	n/a
61.75	0.485	behavioral response time following visual oddball stimulus onset	1.0	target	n/a
61.75	0.2	visual oddball stimulus presentation	1.0	target	n/a
64.348	0.2	visual oddball stimulus presentation	1.0	target	n/a
64.348	0.461	behavioral response time following visual oddball stimulus onset	1.0	target	n/a
66.349	0.444	behavioral response time following visual oddball stimulus onset	1.0	target	n/a
66.349	0.2	visual oddball stimulus presentation	1.0	target	n/a
68.351	0.375	behavioral response time following visual oddball stimulus onset	1.0	target	n/a
68.351	0.2	visual oddball stimulus presentation	1.0	target	n/a
70.552	0.2	visual standard stimulus presentation	0.0	standard	n/a
72.555	0.2	visual standard stimulus presentation	0.0	standard	n/a
74.953	0.2	visual standard stimulus presentation	0.0	standard	n/a
77.749	0.2	visual oddball stimulus presentation	1.0	target	n/a
77.749	0.48	behavioral response time following visual oddball stimulus onset	1.0	target	n/a
80.546	0.2	visual standard stimulus presentation	0.0	standard	n/a
82.549	0.2	visual oddball stimulus presentation	1.0	target	n/a
82.549	0.416	behavioral response time following visual oddball stimulus onset	1.0	target	n/a
84.948	0.2	visual standard stimulus presentation	0.0	standard	n/a
87.942	0.2	visual oddball stimulus presentation	1.0	target	n/a
87.942	0.437	behavioral response time following visual oddball stimulus onset	1.0	target	n/a
90.739	0.2	visual standard stimulus presentation	0.0	standard	n/a
92.94	0.2	visual standard stimulus presentation	0.0	standard	n/a
94.941	0.405	behavioral response time following visual oddball stimulus onset	1.0	target	n/a
94.941	0.2	visual oddball stimulus presentation	1.0	target	n/a
97.539	0.2	visual standard stimulus presentation	0.0	standard	n/a
99.938	0.383	behavioral response time following visual oddball stimulus onset	1.0	target	n/a
99.938	0.2	visual oddball stimulus presentation	1.0	target	n/a
102.139	0.2	visual oddball stimulus presentation	1.0	target	n/a
102.139	0.434	behavioral response time following visual oddball stimulus onset	1.0	target	n/a
104.538	0.2	visual standard stimulus presentation	0.0	standard	n/a
107.136	0.379	behavioral response time following visual oddball stimulus onset	1.0	target	n/a
107.136	0.2	visual oddball stimulus presentation	1.0	target	n/a
109.932	0.39	behavioral response time following visual oddball stimulus onset	1.0	target	n/a
109.932	0.2	visual oddball stimulus presentation	1.0	target	n/a
111.935	0.2	visual standard stimulus presentation	0.0	standard	n/a
114.93	0.2	visual standard stimulus presentation	0.0	standard	n/a
116.931	0.2	visual standard stimulus presentation	0.0	standard	n/a
119.332	0.2	visual standard stimulus presentation	0.0	standard	n/a
122.128	0.2	visual standard stimulus presentation	0.0	standard	n/a
124.924	0.2	visual standard stimulus presentation	0.0	standard	n/a
127.72	0.2	visual standard stimulus presentation	0.0	standard	n/a
129.92	0.2	visual standard stimulus presentation	0.0	standard	n/a
132.916	0.2	visual standard stimulus presentation	0.0	standard	n/a
135.91	0.2	visual standard stimulus presentation	0.0	standard	n/a
138.707	0.2	visual oddball stimulus presentation	1.0	target	n/a
138.707	0.397	behavioral response time following visual oddball stimulus onset	1.0	target	n/a
141.702	0.2	visual standard stimulus presentation	0.0	standard	n/a
143.703	0.2	visual standard stimulus presentation	0.0	standard	n/a
145.904	0.2	visual standard stimulus presentation	0.0	standard	n/a
148.303	0.2	visual standard stimulus presentation	0.0	standard	n/a
150.306	0.2	visual standard stimulus presentation	0.0	standard	n/a
153.301	0.2	visual standard stimulus presentation	0.0	standard	n/a
155.303	0.2	visual standard stimulus presentation	0.0	standard	n/a
157.305	0.471	behavioral response time following visual oddball stimulus onset	1.0	target	n/a
157.305	0.2	visual oddball stimulus presentation	1.0	target	n/a
160.3	0.2	visual standard stimulus presentation	0.0	standard	n/a
163.096	0.2	visual standard stimulus presentation	0.0	standard	n/a
165.098	0.2	visual standard stimulus presentation	0.0	standard	n/a
167.497	0.2	visual standard stimulus presentation	0.0	standard	n/a
170.493	0.2	visual standard stimulus presentation	0.0	standard	n/a
172.494	0.2	visual standard stimulus presentation	0.0	standard	n/a
174.696	0.491	behavioral response time following visual oddball stimulus onset	1.0	target	n/a
174.696	0.2	visual oddball stimulus presentation	1.0	target	n/a
176.897	0.2	visual standard stimulus presentation	0.0	standard	n/a
179.296	0.2	visual standard stimulus presentation	0.0	standard	n/a
182.092	0.2	visual standard stimulus presentation	0.0	standard	n/a
184.293	0.2	visual standard stimulus presentation	0.0	standard	n/a
186.691	0.2	visual standard stimulus presentation	0.0	standard	n/a
189.687	0.413	behavioral response time following visual oddball stimulus onset	1.0	target	n/a
189.687	0.2	visual oddball stimulus presentation	1.0	target	n/a
191.887	0.2	visual standard stimulus presentation	0.0	standard	n/a
194.087	0.2	visual standard stimulus presentation	0.0	standard	n/a
196.089	0.2	visual standard stimulus presentation	0.0	standard	n/a
198.092	0.2	visual standard stimulus presentation	0.0	standard	n/a
201.087	0.2	visual standard stimulus presentation	0.0	standard	n/a
203.09	0.2	visual standard stimulus presentation	0.0	standard	n/a
205.091	0.2	visual standard stimulus presentation	0.0	standard	n/a
207.292	0.2	visual standard stimulus presentation	0.0	standard	n/a
209.89	0.2	visual standard stimulus presentation	0.0	standard	n/a
212.091	0.423	behavioral response time following visual oddball stimulus onset	1.0	target	n/a
212.091	0.2	visual oddball stimulus presentation	1.0	target	n/a
214.489	0.2	visual standard stimulus presentation	0.0	standard	n/a
216.691	0.2	visual standard stimulus presentation	0.0	standard	n/a
219.487	0.2	visual standard stimulus presentation	0.0	standard	n/a
222.283	0.2	visual oddball stimulus presentation	1.0	target	n/a
222.283	0.369	behavioral response time following visual oddball stimulus onset	1.0	target	n/a
225.08	0.2	visual standard stimulus presentation	0.0	standard	n/a
227.28	0.2	visual standard stimulus presentation	0.0	standard	n/a
229.679	0.2	visual standard stimulus presentation	0.0	standard	n/a
232.475	0.2	visual standard stimulus presentation	0.0	standard	n/a
235.272	0.2	visual standard stimulus presentation	0.0	standard	n/a
237.473	0.2	visual standard stimulus presentation	0.0	standard	n/a
240.07	0.2	visual standard stimulus presentation	0.0	standard	n/a
242.47	0.2	visual standard stimulus presentation	0.0	standard	n/a
244.472	0.2	visual standard stimulus presentation	0.0	standard	n/a
247.07	0.2	visual standard stimulus presentation	0.0	standard	n/a
249.668	0.2	visual standard stimulus presentation	0.0	standard	n/a
252.266	0.2	visual standard stimulus presentation	0.0	standard	n/a
254.267	0.2	visual standard stimulus presentation	0.0	standard	n/a
256.467	0.2	visual standard stimulus presentation	0.0	standard	n/a
259.463	0.2	visual standard stimulus presentation	0.0	standard	n/a
262.259	0.2	visual standard stimulus presentation	0.0	standard	n/a
264.261	0.2	visual oddball stimulus presentation	1.0	target	n/a
264.261	0.426	behavioral response time following visual oddball stimulus onset	1.0	target	n/a
266.859	0.2	visual standard stimulus presentation	0.0	standard	n/a
269.059	0.2	visual standard stimulus presentation	0.0	standard	n/a
271.459	0.2	visual standard stimulus presentation	0.0	standard	n/a
274.256	0.2	visual standard stimulus presentation	0.0	standard	n/a
276.854	0.2	visual standard stimulus presentation	0.0	standard	n/a
278.855	0.2	visual standard stimulus presentation	0.0	standard	n/a
281.255	0.2	visual standard stimulus presentation	0.0	standard	n/a
283.852	0.2	visual oddball stimulus presentation	1.0	target	n/a
283.852	0.463	behavioral response time following visual oddball stimulus onset	1.0	target	n/a
286.449	0.2	visual standard stimulus presentation	0.0	standard	n/a
289.048	0.2	visual standard stimulus presentation	0.0	standard	n/a
292.043	0.2	visual standard stimulus presentation	0.0	standard	n/a
294.243	0.2	visual oddball stimulus presentation	1.0	target	n/a
294.243	0.437	behavioral response time following visual oddball stimulus onset	1.0	target	n/a
296.443	0.2	visual standard stimulus presentation	0.0	standard	n/a
298.447	0.2	visual standard stimulus presentation	0.0	standard	n/a
301.043	0.2	visual standard stimulus presentation	0.0	standard	n/a
303.641	0.2	visual standard stimulus presentation	0.0	standard	n/a
306.637	0.2	visual standard stimulus presentation	0.0	standard	n/a
309.632	0.2	visual standard stimulus presentation	0.0	standard	n/a
311.634	0.2	visual oddball stimulus presentation	1.0	target	n/a
311.634	0.592	behavioral response time following visual oddball stimulus onset	1.0	target	n/a
n/a	n/a	n/a	5.16	0	standard
n/a	n/a	n/a	7.179	0	standard
n/a	n/a	n/a	9.992	1	target
