onset	duration	trial_type	Response	Stimulus	RT
4.683	0.2	auditory standard stimulus presentation	n/a	n/a	n/a
7.496	0.2	auditory standard stimulus presentation	n/a	n/a	n/a
9.515	0.2	auditory standard stimulus presentation	n/a	n/a	n/a
12.344	0.2	auditory standard stimulus presentation	0.0	standard	n/a
14.976	0.2	auditory standard stimulus presentation	0.0	standard	n/a
17.225	0.2	auditory standard stimulus presentation	0.0	standard	n/a
19.459	0.352	behavioral response time following auditory oddball stimulus onset	1.0	target	n/a
19.459	0.2	auditory oddball stimulus presentation	1.0	target	n/a
21.692	0.472	behavioral response time following auditory oddball stimulus onset	1.0	target	n/a
21.692	0.2	auditory oddball stimulus presentation	1.0	target	n/a
24.324	0.2	auditory standard stimulus presentation	0.0	standard	n/a
27.369	0.37	behavioral response time following auditory oddball stimulus onset	1.0	target	n/a
27.369	0.2	auditory oddball stimulus presentation	1.0	target	n/a
30.413	0.2	auditory standard stimulus presentation	0.0	standard	n/a
33.259	0.2	auditory standard stimulus presentation	0.0	standard	n/a
35.294	0.2	auditory standard stimulus presentation	0.0	standard	n/a
38.322	0.2	auditory standard stimulus presentation	0.0	standard	n/a
40.373	0.2	auditory standard stimulus presentation	0.0	standard	n/a
42.806	0.2	auditory standard stimulus presentation	0.0	standard	n/a
45.238	0.2	auditory standard stimulus presentation	0.0	standard	n/a
47.869	0.2	auditory standard stimulus presentation	0.0	standard	n/a
49.888	0.2	auditory standard stimulus presentation	0.0	standard	n/a
52.138	0.2	auditory standard stimulus presentation	0.0	standard	n/a
54.174	0.2	auditory standard stimulus presentation	0.0	standard	n/a
57.019	0.2	auditory standard stimulus presentation	0.0	standard	n/a
59.667	0.2	auditory standard stimulus presentation	0.0	standard	n/a
62.298	0.2	auditory standard stimulus presentation	0.0	standard	n/a
64.333	0.2	auditory standard stimulus presentation	0.0	standard	n/a
66.964	0.2	auditory standard stimulus presentation	0.0	standard	n/a
68.999	0.2	auditory standard stimulus presentation	0.0	standard	n/a
71.63	0.2	auditory standard stimulus presentation	0.0	standard	n/a
74.476	0.2	auditory standard stimulus presentation	0.0	standard	n/a
76.908	0.2	auditory standard stimulus presentation	0.0	standard	n/a
79.556	0.2	auditory standard stimulus presentation	0.0	standard	n/a
82.402	0.2	auditory standard stimulus presentation	0.0	standard	n/a
85.033	0.2	auditory standard stimulus presentation	0.0	standard	n/a
87.267	0.2	auditory standard stimulus presentation	0.0	standard	n/a
89.501	0.293	behavioral response time following auditory oddball stimulus onset	1.0	target	n/a
89.501	0.2	auditory oddball stimulus presentation	1.0	target	n/a
91.536	0.2	auditory standard stimulus presentation	0.0	standard	n/a
93.968	0.2	auditory standard stimulus presentation	0.0	standard	n/a
96.798	0.2	auditory standard stimulus presentation	0.0	standard	n/a
99.23	0.399	behavioral response time following auditory oddball stimulus onset	1.0	target	n/a
99.23	0.2	auditory oddball stimulus presentation	1.0	target	n/a
101.265	0.2	auditory oddball stimulus presentation	1.0	target	n/a
101.265	0.407	behavioral response time following auditory oddball stimulus onset	1.0	target	n/a
103.499	0.2	auditory standard stimulus presentation	0.0	standard	n/a
106.146	0.2	auditory standard stimulus presentation	0.0	standard	n/a
108.182	0.335	behavioral response time following auditory oddball stimulus onset	1.0	target	n/a
108.182	0.2	auditory oddball stimulus presentation	1.0	target	n/a
110.613	0.354	behavioral response time following auditory oddball stimulus onset	1.0	target	n/a
110.613	0.2	auditory oddball stimulus presentation	1.0	target	n/a
112.666	0.2	auditory standard stimulus presentation	0.0	standard	n/a
114.899	0.2	auditory standard stimulus presentation	0.0	standard	n/a
117.529	0.309	behavioral response time following auditory oddball stimulus onset	1.0	target	n/a
117.529	0.2	auditory oddball stimulus presentation	1.0	target	n/a
119.566	0.2	auditory standard stimulus presentation	0.0	standard	n/a
121.6	0.2	auditory standard stimulus presentation	0.0	standard	n/a
123.834	0.2	auditory standard stimulus presentation	0.0	standard	n/a
126.067	0.2	auditory oddball stimulus presentation	1.0	target	n/a
126.067	0.316	behavioral response time following auditory oddball stimulus onset	1.0	target	n/a
128.914	0.2	auditory standard stimulus presentation	0.0	standard	n/a
131.544	0.2	auditory standard stimulus presentation	0.0	standard	n/a
133.778	0.2	auditory standard stimulus presentation	0.0	standard	n/a
136.227	0.2	auditory standard stimulus presentation	0.0	standard	n/a
138.659	0.2	auditory standard stimulus presentation	0.0	standard	n/a
140.894	0.2	auditory standard stimulus presentation	0.0	standard	n/a
143.541	0.329	behavioral response time following auditory oddball stimulus onset	1.0	target	n/a
143.541	0.2	auditory oddball stimulus presentation	1.0	target	n/a
146.171	0.2	auditory oddball stimulus presentation	1.0	target	n/a
146.171	0.482	behavioral response time following auditory oddball stimulus onset	1.0	target	n/a
148.206	0.32	behavioral response time following auditory oddball stimulus onset	1.0	target	n/a
148.206	0.2	auditory oddball stimulus presentation	1.0	target	n/a
150.64	0.2	auditory standard stimulus presentation	0.0	standard	n/a
152.873	0.2	auditory standard stimulus presentation	0.0	standard	n/a
155.306	0.2	auditory standard stimulus presentation	0.0	standard	n/a
157.341	0.2	auditory standard stimulus presentation	0.0	standard	n/a
160.169	0.2	auditory standard stimulus presentation	0.0	standard	n/a
163.199	0.2	auditory oddball stimulus presentation	1.0	target	n/a
163.199	0.307	behavioral response time following auditory oddball stimulus onset	1.0	target	n/a
165.217	0.2	auditory standard stimulus presentation	0.0	standard	n/a
167.251	0.2	auditory standard stimulus presentation	0.0	standard	n/a
169.685	0.2	auditory standard stimulus presentation	0.0	standard	n/a
172.713	0.549	behavioral response time following auditory oddball stimulus onset	1.0	target	n/a
172.713	0.2	auditory oddball stimulus presentation	1.0	target	n/a
175.344	0.33	behavioral response time following auditory oddball stimulus onset	1.0	target	n/a
175.344	0.2	auditory oddball stimulus presentation	1.0	target	n/a
178.371	0.2	auditory standard stimulus presentation	0.0	standard	n/a
181.018	0.2	auditory standard stimulus presentation	0.0	standard	n/a
184.063	0.2	auditory standard stimulus presentation	0.0	standard	n/a
186.314	0.297	behavioral response time following auditory oddball stimulus onset	1.0	target	n/a
186.314	0.2	auditory oddball stimulus presentation	1.0	target	n/a
188.746	0.2	auditory standard stimulus presentation	0.0	standard	n/a
190.979	0.2	auditory standard stimulus presentation	0.0	standard	n/a
193.825	0.2	auditory standard stimulus presentation	0.0	standard	n/a
196.456	0.2	auditory standard stimulus presentation	0.0	standard	n/a
199.286	0.2	auditory standard stimulus presentation	0.0	standard	n/a
201.917	0.2	auditory standard stimulus presentation	0.0	standard	n/a
204.548	0.226	behavioral response time following auditory oddball stimulus onset	1.0	target	n/a
204.548	0.2	auditory oddball stimulus presentation	1.0	target	n/a
207.179	0.2	auditory standard stimulus presentation	0.0	standard	n/a
209.81	0.2	auditory standard stimulus presentation	0.0	standard	n/a
212.638	0.2	auditory oddball stimulus presentation	1.0	target	n/a
212.638	0.549	behavioral response time following auditory oddball stimulus onset	1.0	target	n/a
215.667	0.2	auditory oddball stimulus presentation	1.0	target	n/a
215.667	0.522	behavioral response time following auditory oddball stimulus onset	1.0	target	n/a
217.702	0.2	auditory standard stimulus presentation	0.0	standard	n/a
219.936	0.2	auditory standard stimulus presentation	0.0	standard	n/a
221.97	0.2	auditory standard stimulus presentation	0.0	standard	n/a
224.817	0.2	auditory standard stimulus presentation	0.0	standard	n/a
227.862	0.2	auditory standard stimulus presentation	0.0	standard	n/a
230.509	0.2	auditory standard stimulus presentation	0.0	standard	n/a
232.544	0.2	auditory standard stimulus presentation	0.0	standard	n/a
235.572	0.2	auditory standard stimulus presentation	0.0	standard	n/a
238.599	0.2	auditory standard stimulus presentation	0.0	standard	n/a
240.652	0.2	auditory standard stimulus presentation	0.0	standard	n/a
243.679	0.2	auditory standard stimulus presentation	0.0	standard	n/a
245.714	0.2	auditory standard stimulus presentation	0.0	standard	n/a
248.561	0.2	auditory standard stimulus presentation	0.0	standard	n/a
251.588	0.356	behavioral response time following auditory oddball stimulus onset	1.0	target	n/a
251.588	0.2	auditory oddball stimulus presentation	1.0	target	n/a
254.418	0.2	auditory standard stimulus presentation	0.0	standard	n/a
257.463	0.2	auditory standard stimulus presentation	0.0	standard	n/a
259.714	0.2	auditory standard stimulus presentation	0.0	standard	n/a
261.947	0.2	auditory standard stimulus presentation	0.0	standard	n/a
264.198	0.2	auditory standard stimulus presentation	0.0	standard	n/a
267.258	0.2	auditory standard stimulus presentation	0.0	standard	n/a
269.293	0.2	auditory standard stimulus presentation	0.0	standard	n/a
271.528	0.2	auditory standard stimulus presentation	0.0	standard	n/a
274.572	0.2	auditory standard stimulus presentation	0.0	standard	n/a
277.599	0.2	auditory standard stimulus presentation	0.0	standard	n/a
280.43	0.2	auditory standard stimulus presentation	0.0	standard	n/a
282.68	0.2	auditory standard stimulus presentation	0.0	standard	n/a
285.724	0.2	auditory standard stimulus presentation	0.0	standard	n/a
287.974	0.2	auditory oddball stimulus presentation	1.0	target	n/a
287.974	0.349	behavioral response time following auditory oddball stimulus onset	1.0	target	n/a
290.804	0.2	auditory standard stimulus presentation	0.0	standard	n/a
293.833	0.2	auditory standard stimulus presentation	0.0	standard	n/a
295.884	0.2	auditory standard stimulus presentation	0.0	standard	n/a
298.117	0.2	auditory standard stimulus presentation	0.0	standard	n/a
300.963	0.2	auditory standard stimulus presentation	0.0	standard	n/a
302.998	0.2	auditory standard stimulus presentation	0.0	standard	n/a
305.232	0.383	behavioral response time following auditory oddball stimulus onset	1.0	target	n/a
305.232	0.2	auditory oddball stimulus presentation	1.0	target	n/a
307.681	0.2	auditory standard stimulus presentation	0.0	standard	n/a
309.716	0.393	behavioral response time following auditory oddball stimulus onset	1.0	target	n/a
309.716	0.2	auditory oddball stimulus presentation	1.0	target	n/a
312.332	0.2	auditory standard stimulus presentation	0.0	standard	n/a
314.366	0.443	behavioral response time following auditory oddball stimulus onset	1.0	target	n/a
314.366	0.2	auditory oddball stimulus presentation	1.0	target	n/a
n/a	n/a	n/a	4.683	1	standard
n/a	n/a	n/a	7.496	0	standard
n/a	n/a	n/a	9.515	0	standard
