onset	duration	trial_type	Object_Cond	Validity_Cond	Obj_Accuracy	Obj_Acc_RT	Subseq_Recog	Subseq_Recog_RT	Subseq_Source_Mem_Acc	Subseq_Source_Mem_Acc_RT
4.001	1.000	Valid Other Obj Cue: valid cue where following stimulus was an untested or no response object	OBJ	V	1	0.743	UT	UT	UT	UT
8.001	0.500	Valid Other Obj: stimulus that was an untested or no response object and that followed a valid cue	OBJ	V	1	0.743	UT	UT	UT	UT
10.002	1.000	Valid Other Greeble Cue: valid cue where following stimulus was an untested or no response greeble	GRE	V	1	0.738	UT	UT	UT	UT
14.002	0.500	Valid Other Greeble: stimulus that was an untested or no response greeble and that followed a valid cue	GRE	V	1	0.738	UT	UT	UT	UT
16.001	1.000	Valid LC-Hit Cue: valid cue where following object was a subsequent low confidence hit	OBJ	V	1	0.874	LC-HIT	 2.4239	1	0.42292
20.001	0.500	Valid LC-Hit Obj: object that was a subsequent low confidence hit and that followed a valid cue	OBJ	V	1	0.874	LC-HIT	 2.4239	1	0.42292
22.001	1.000	Valid HC-Hit Cue: valid cue where following object was a subsequent high confidence hit	OBJ	V	1	0.818	HC-HIT	 1.0467	1	0.70966
28.001	0.500	Valid HC-Hit Obj: object that was a subsequent high confidence hit and that followed a valid cue	OBJ	V	1	0.818	HC-HIT	 1.0467	1	0.70966
30.002	1.000	Valid Other Greeble Cue: valid cue where following stimulus was an untested or no response greeble	GRE	V	1	0.782	UT	UT	UT	UT
32.002	0.500	Valid Other Greeble: stimulus that was an untested or no response greeble and that followed a valid cue	GRE	V	1	0.782	UT	UT	UT	UT
34.002	1.000	Valid Other Greeble Cue: valid cue where following stimulus was an untested or no response greeble	GRE	V	1	0.734	UT	UT	UT	UT
40.002	0.500	Valid Other Greeble: stimulus that was an untested or no response greeble and that followed a valid cue	GRE	V	1	0.734	UT	UT	UT	UT
44.002	1.000	Valid Miss Cue: valid cue where following object was a subsequent miss	OBJ	V	1	0.765	HC-MISS	 1.5304	UT	UT
48.002	0.500	Valid Miss Obj: object that was a subsequent miss and that followed a valid cue	OBJ	V	1	0.765	HC-MISS	 1.5304	UT	UT
52.001	1.000	Invalid Miss Cue: invalid cue where following object was a subsequent miss	OBJ	NV	1	0.923	LC-MISS	 1.0788	UT	UT
58.001	0.500	Invalid Miss Obj: object that was a subsequent miss and that followed an invalid cue	OBJ	NV	1	0.923	LC-MISS	 1.0788	UT	UT
62.002	1.000	Valid HC-Hit Cue: valid cue where following object was a subsequent high confidence hit	OBJ	V	1	0.916	HC-HIT	 1.6396	1	0.78879
64.002	0.500	Valid HC-Hit Obj: object that was a subsequent high confidence hit and that followed a valid cue	OBJ	V	1	0.916	HC-HIT	 1.6396	1	0.78879
66.001	1.000	Valid HC-Hit Cue: valid cue where following object was a subsequent high confidence hit	OBJ	V	1	0.849	HC-HIT	   1.69	1	1.9841
68.001	0.500	Valid HC-Hit Obj: object that was a subsequent high confidence hit and that followed a valid cue	OBJ	V	1	0.849	HC-HIT	   1.69	1	1.9841
70.002	1.000	Valid LC-Hit Cue: valid cue where following object was a subsequent low confidence hit	OBJ	V	1	0.908	LC-HIT	 1.5649	0	0.7534
72.002	0.500	Valid LC-Hit Obj: object that was a subsequent low confidence hit and that followed a valid cue	OBJ	V	1	0.908	LC-HIT	 1.5649	0	0.7534
74.001	1.000	Valid LC-Hit Cue: valid cue where following object was a subsequent low confidence hit	OBJ	V	1	0.646	LC-HIT	 1.6404	1	0.77695
78.001	0.500	Valid LC-Hit Obj: object that was a subsequent low confidence hit and that followed a valid cue	OBJ	V	1	0.646	LC-HIT	 1.6404	1	0.77695
80.000	1.000	Valid LC-Hit Cue: valid cue where following object was a subsequent low confidence hit	OBJ	V	1	0.726	LC-HIT	 1.9728	1	0.71775
86.000	0.500	Valid LC-Hit Obj: object that was a subsequent low confidence hit and that followed a valid cue	OBJ	V	1	0.726	LC-HIT	 1.9728	1	0.71775
88.002	1.000	Valid Other Greeble Cue: valid cue where following stimulus was an untested or no response greeble	GRE	V	1	0.721	UT	UT	UT	UT
90.002	0.500	Valid Other Greeble: stimulus that was an untested or no response greeble and that followed a valid cue	GRE	V	1	0.721	UT	UT	UT	UT
92.001	1.000	Valid LC-Hit Cue: valid cue where following object was a subsequent low confidence hit	OBJ	V	1	0.687	LC-HIT	 2.8356	1	0.45324
98.001	0.500	Valid LC-Hit Obj: object that was a subsequent low confidence hit and that followed a valid cue	OBJ	V	1	0.687	LC-HIT	 2.8356	1	0.45324
100.001	1.000	Invalid LC-Hit Cue: invalid cue where following object was a subsequent low confidence hit	OBJ	NV	1	1.131	LC-HIT	 1.3776	0	0.79635
104.001	0.500	Invalid LC-Hit Obj: object that was a subsequent low confidence hit and that followed an invalid cue	OBJ	NV	1	1.131	LC-HIT	 1.3776	0	0.79635
106.001	1.000	Valid Other Obj Cue: valid cue where following stimulus was an untested or no response object	OBJ	V	1	0.841	NR	NR	UT	UT
112.001	0.500	Valid Other Obj: stimulus that was an untested or no response object and that followed a valid cue	OBJ	V	1	0.841	NR	NR	UT	UT
114.002	1.000	Valid LC-Hit Cue: valid cue where following object was a subsequent low confidence hit	OBJ	V	1	0.838	LC-HIT	 1.1248	1	0.8035
116.002	0.500	Valid LC-Hit Obj: object that was a subsequent low confidence hit and that followed a valid cue	OBJ	V	1	0.838	LC-HIT	 1.1248	1	0.8035
118.002	1.000	Valid HC-Hit Cue: valid cue where following object was a subsequent high confidence hit	OBJ	V	1	0.762	HC-HIT	 1.4417	1	0.60349
120.002	0.500	Valid HC-Hit Obj: object that was a subsequent high confidence hit and that followed a valid cue	OBJ	V	1	0.762	HC-HIT	 1.4417	1	0.60349
122.001	1.000	Valid Other Greeble Cue: valid cue where following stimulus was an untested or no response greeble	GRE	V	1	0.834	UT	UT	UT	UT
126.001	0.500	Valid Other Greeble: stimulus that was an untested or no response greeble and that followed a valid cue	GRE	V	1	0.834	UT	UT	UT	UT
128.002	1.000	Valid LC-Hit Cue: valid cue where following object was a subsequent low confidence hit	OBJ	V	1	0.847	LC-HIT	  2.207	0	0.82191
130.002	0.500	Valid LC-Hit Obj: object that was a subsequent low confidence hit and that followed a valid cue	OBJ	V	1	0.847	LC-HIT	  2.207	0	0.82191
134.002	1.000	Valid Other Greeble Cue: valid cue where following stimulus was an untested or no response greeble	GRE	V	1	0.684	UT	UT	UT	UT
140.002	0.500	Valid Other Greeble: stimulus that was an untested or no response greeble and that followed a valid cue	GRE	V	1	0.684	UT	UT	UT	UT
142.001	1.000	Valid Other Greeble Cue: valid cue where following stimulus was an untested or no response greeble	GRE	V	1	0.931	UT	UT	UT	UT
148.001	0.500	Valid Other Greeble: stimulus that was an untested or no response greeble and that followed a valid cue	GRE	V	1	0.931	UT	UT	UT	UT
150.001	1.000	Valid HC-Hit Cue: valid cue where following object was a subsequent high confidence hit	OBJ	V	1	0.836	HC-HIT	0.92619	1	0.47809
156.001	0.500	Valid HC-Hit Obj: object that was a subsequent high confidence hit and that followed a valid cue	OBJ	V	1	0.836	HC-HIT	0.92619	1	0.47809
160.001	1.000	Invalid Miss Cue: invalid cue where following object was a subsequent miss	OBJ	NV	1	0.962	HC-MISS	 1.6512	UT	UT
166.001	0.500	Invalid Miss Obj: object that was a subsequent miss and that followed an invalid cue	OBJ	NV	1	0.962	HC-MISS	 1.6512	UT	UT
168.002	1.000	Valid Other Obj Cue: valid cue where following stimulus was an untested or no response object	OBJ	V	1	0.803	UT	UT	UT	UT
172.002	0.500	Valid Other Obj: stimulus that was an untested or no response object and that followed a valid cue	OBJ	V	1	0.803	UT	UT	UT	UT
174.001	1.000	Valid Miss Cue: valid cue where following object was a subsequent miss	OBJ	V	1	0.885	LC-MISS	0.90428	UT	UT
178.001	0.500	Valid Miss Obj: object that was a subsequent miss and that followed a valid cue	OBJ	V	1	0.885	LC-MISS	0.90428	UT	UT
182.002	1.000	Valid Miss Cue: valid cue where following object was a subsequent miss	OBJ	V	1	0.807	LC-MISS	 1.5264	UT	UT
184.002	0.500	Valid Miss Obj: object that was a subsequent miss and that followed a valid cue	OBJ	V	1	0.807	LC-MISS	 1.5264	UT	UT
186.001	1.000	Valid Other Obj Cue: valid cue where following stimulus was an untested or no response object	OBJ	V	1	0.741	UT	UT	UT	UT
192.001	0.500	Valid Other Obj: stimulus that was an untested or no response object and that followed a valid cue	OBJ	V	1	0.741	UT	UT	UT	UT
194.001	1.000	Valid Other Greeble Cue: valid cue where following stimulus was an untested or no response greeble	GRE	V	1	0.825	UT	UT	UT	UT
196.001	0.500	Valid Other Greeble: stimulus that was an untested or no response greeble and that followed a valid cue	GRE	V	1	0.825	UT	UT	UT	UT
198.001	1.000	Valid Other Greeble Cue: valid cue where following stimulus was an untested or no response greeble	GRE	V	1	0.894	UT	UT	UT	UT
200.001	0.500	Valid Other Greeble: stimulus that was an untested or no response greeble and that followed a valid cue	GRE	V	1	0.894	UT	UT	UT	UT
202.002	1.000	Invalid LC-Hit Cue: invalid cue where following object was a subsequent low confidence hit	OBJ	NV	1	0.976	LC-HIT	 2.1333	0	0.37167
204.002	0.500	Invalid LC-Hit Obj: object that was a subsequent low confidence hit and that followed an invalid cue	OBJ	NV	1	0.976	LC-HIT	 2.1333	0	0.37167
210.001	1.000	Valid Miss Cue: valid cue where following object was a subsequent miss	OBJ	V	1	1.199	LC-MISS	 2.9146	UT	UT
214.001	0.500	Valid Miss Obj: object that was a subsequent miss and that followed a valid cue	OBJ	V	1	1.199	LC-MISS	 2.9146	UT	UT
216.002	1.000	Valid LC-Hit Cue: valid cue where following object was a subsequent low confidence hit	OBJ	V	1	0.785	LC-HIT	 1.8089	0	0.79447
220.002	0.500	Valid LC-Hit Obj: object that was a subsequent low confidence hit and that followed a valid cue	OBJ	V	1	0.785	LC-HIT	 1.8089	0	0.79447
222.001	1.000	Valid HC-Hit Cue: valid cue where following object was a subsequent high confidence hit	OBJ	V	1	0.872	HC-HIT	 1.3864	1	1.2021
228.001	0.500	Valid HC-Hit Obj: object that was a subsequent high confidence hit and that followed a valid cue	OBJ	V	1	0.872	HC-HIT	 1.3864	1	1.2021
230.002	1.000	Valid Other Greeble Cue: valid cue where following stimulus was an untested or no response greeble	GRE	V	1	0.783	UT	UT	UT	UT
236.002	0.500	Valid Other Greeble: stimulus that was an untested or no response greeble and that followed a valid cue	GRE	V	1	0.783	UT	UT	UT	UT
238.002	1.000	Valid Miss Cue: valid cue where following object was a subsequent miss	OBJ	V	1	0.787	LC-MISS	 1.4889	UT	UT
240.002	0.500	Valid Miss Obj: object that was a subsequent miss and that followed a valid cue	OBJ	V	1	0.787	LC-MISS	 1.4889	UT	UT
244.001	1.000	Valid Miss Cue: valid cue where following object was a subsequent miss	OBJ	V	1	0.771	LC-MISS	 1.1526	UT	UT
248.001	0.500	Valid Miss Obj: object that was a subsequent miss and that followed a valid cue	OBJ	V	1	0.771	LC-MISS	 1.1526	UT	UT
250.001	1.000	Valid Other Obj Cue: valid cue where following stimulus was an untested or no response object	OBJ	V	1	0.794	UT	UT	UT	UT
256.002	0.500	Valid Other Obj: stimulus that was an untested or no response object and that followed a valid cue	OBJ	V	1	0.794	UT	UT	UT	UT
258.002	1.000	Valid HC-Hit Cue: valid cue where following object was a subsequent high confidence hit	OBJ	V	1	0.693	HC-HIT	 1.2415	1	0.27515
262.002	0.500	Valid HC-Hit Obj: object that was a subsequent high confidence hit and that followed a valid cue	OBJ	V	1	0.693	HC-HIT	 1.2415	1	0.27515
264.001	1.000	Valid Other Greeble Cue: valid cue where following stimulus was an untested or no response greeble	GRE	V	1	0.884	UT	UT	UT	UT
270.001	0.500	Valid Other Greeble: stimulus that was an untested or no response greeble and that followed a valid cue	GRE	V	1	0.884	UT	UT	UT	UT
274.002	1.000	Invalid Miss Cue: invalid cue where following object was a subsequent miss	OBJ	NV	1	0.763	HC-MISS	 1.0838	UT	UT
278.002	0.500	Invalid Miss Obj: object that was a subsequent miss and that followed an invalid cue	OBJ	NV	1	0.763	HC-MISS	 1.0838	UT	UT
280.001	1.000	Invalid Other Greeble Cue: invalid cue where following stimulus was an untested or no response greeble	GRE	NV	1	0.973	UT	UT	UT	UT
284.001	0.500	Invalid Other Greeble: stimulus that was an untested or no response greeble and that followed a invalid cue	GRE	NV	1	0.973	UT	UT	UT	UT
286.001	1.000	Valid Other Greeble Cue: valid cue where following stimulus was an untested or no response greeble	GRE	V	1	0.914	UT	UT	UT	UT
288.001	0.500	Valid Other Greeble: stimulus that was an untested or no response greeble and that followed a valid cue	GRE	V	1	0.914	UT	UT	UT	UT
290.001	1.000	Valid HC-Hit Cue: valid cue where following object was a subsequent high confidence hit	OBJ	V	1	0.772	HC-HIT	 1.5462	1	0.63008
292.001	0.500	Valid HC-Hit Obj: object that was a subsequent high confidence hit and that followed a valid cue	OBJ	V	1	0.772	HC-HIT	 1.5462	1	0.63008
294.002	1.000	Valid Other Greeble Cue: valid cue where following stimulus was an untested or no response greeble	GRE	V	1	0.932	UT	UT	UT	UT
300.002	0.500	Valid Other Greeble: stimulus that was an untested or no response greeble and that followed a valid cue	GRE	V	1	0.932	UT	UT	UT	UT
302.002	1.000	Invalid Miss Cue: invalid cue where following object was a subsequent miss	OBJ	NV	1	0.784	LC-MISS	  1.159	UT	UT
304.002	0.500	Invalid Miss Obj: object that was a subsequent miss and that followed an invalid cue	OBJ	NV	1	0.784	LC-MISS	  1.159	UT	UT
306.002	1.000	Valid HC-Hit Cue: valid cue where following object was a subsequent high confidence hit	OBJ	V	1	0.777	HC-HIT	 1.0921	1	0.50731
310.002	0.500	Valid HC-Hit Obj: object that was a subsequent high confidence hit and that followed a valid cue	OBJ	V	1	0.777	HC-HIT	 1.0921	1	0.50731
316.002	1.000	Invalid Miss Cue: invalid cue where following object was a subsequent miss	OBJ	NV	1	0.970	LC-MISS	 2.0688	UT	UT
318.002	0.500	Invalid Miss Obj: object that was a subsequent miss and that followed an invalid cue	OBJ	NV	1	0.970	LC-MISS	 2.0688	UT	UT
322.001	1.000	Valid Other Greeble Cue: valid cue where following stimulus was an untested or no response greeble	GRE	V	1	0.834	UT	UT	UT	UT
324.001	0.500	Valid Other Greeble: stimulus that was an untested or no response greeble and that followed a valid cue	GRE	V	1	0.834	UT	UT	UT	UT
326.001	1.000	Valid LC-Hit Cue: valid cue where following object was a subsequent low confidence hit	OBJ	V	1	0.701	LC-HIT	 2.2181	0	0.39333
330.001	0.500	Valid LC-Hit Obj: object that was a subsequent low confidence hit and that followed a valid cue	OBJ	V	1	0.701	LC-HIT	 2.2181	0	0.39333
332.003	1.000	Invalid Miss Cue: invalid cue where following object was a subsequent miss	OBJ	NV	1	0.853	LC-MISS	  1.299	UT	UT
336.003	0.500	Invalid Miss Obj: object that was a subsequent miss and that followed an invalid cue	OBJ	NV	1	0.853	LC-MISS	  1.299	UT	UT
340.002	1.000	Valid Other Obj Cue: valid cue where following stimulus was an untested or no response object	OBJ	V	1	0.764	UT	UT	UT	UT
346.002	0.500	Valid Other Obj: stimulus that was an untested or no response object and that followed a valid cue	OBJ	V	1	0.764	UT	UT	UT	UT
348.001	1.000	Valid Miss Cue: valid cue where following object was a subsequent miss	OBJ	V	1	0.741	HC-MISS	 1.4292	UT	UT
352.001	0.500	Valid Miss Obj: object that was a subsequent miss and that followed a valid cue	OBJ	V	1	0.741	HC-MISS	 1.4292	UT	UT
354.000	1.000	Valid Miss Cue: valid cue where following object was a subsequent miss	OBJ	V	1	0.686	LC-MISS	 1.7192	UT	UT
360.000	0.500	Valid Miss Obj: object that was a subsequent miss and that followed a valid cue	OBJ	V	1	0.686	LC-MISS	 1.7192	UT	UT
362.002	1.000	Invalid Other Greeble Cue: invalid cue where following stimulus was an untested or no response greeble	GRE	NV	1	0.929	UT	UT	UT	UT
364.002	0.500	Invalid Other Greeble: stimulus that was an untested or no response greeble and that followed a invalid cue	GRE	NV	1	0.929	UT	UT	UT	UT
