onset	duration	trial_number	event_type	executed_movement	correct_movement	shown_stimulus	reported_gs	correct_gs	included_trial	reason_for_exclusion
10	25	1	stimulus	n/a	n/a	white X	n/a	n/a	0	test trial
35	8.83245099999476	1	stimulus	n/a	n/a	CCGOOGQO	2	2	0	test trial
36.25	0	1	foot step	2	2	n/a	n/a	n/a	0	test trial
36.859999999986	0	1	foot step	1	1	n/a	n/a	n/a	0	test trial
37.4799999999814	0	1	foot step	2	2	n/a	n/a	n/a	0	test trial
38.1300000000047	0	1	foot step	3	3	n/a	n/a	n/a	0	test trial
38.8199999999488	0	1	foot step	2	2	n/a	n/a	n/a	0	test trial
39.4499999999534	0	1	foot step	4	1	n/a	n/a	n/a	0	test trial
40.109999999986	0	1	foot step	2	3	n/a	n/a	n/a	0	test trial
40.75	0	1	foot step	4	2	n/a	n/a	n/a	0	test trial
41.4000000000233	0	1	foot step	1	4	n/a	n/a	n/a	0	test trial
43.8399999999674	5	1	stimulus	n/a	n/a	white X	n/a	n/a	0	test trial
59.5400000000373	24	2	stimulus	n/a	n/a	white X	n/a	n/a	0	erroneous trial
83.5413447000319	9.54642059991602	2	stimulus	n/a	n/a	CGGOGQOQ	2	3	0	erroneous trial
85.3613446999807	0	2	foot step	2	2	n/a	n/a	n/a	0	erroneous trial
85.9413447000552	0	2	foot step	1	1	n/a	n/a	n/a	0	erroneous trial
86.5913447000785	0	2	foot step	2	2	n/a	n/a	n/a	0	erroneous trial
87.261344700004	0	2	foot step	3	3	n/a	n/a	n/a	0	erroneous trial
87.9013447000179	0	2	foot step	2	2	n/a	n/a	n/a	0	erroneous trial
88.5913447000785	0	2	foot step	4	1	n/a	n/a	n/a	0	erroneous trial
89.2513446999947	0	2	foot step	2	3	n/a	n/a	n/a	0	erroneous trial
89.8813446999993	0	2	foot step	4	2	n/a	n/a	n/a	0	erroneous trial
90.5013446999947	0	2	foot step	1	4	n/a	n/a	n/a	0	erroneous trial
93.0999999999767	5	2	stimulus	n/a	n/a	white X	n/a	n/a	0	erroneous trial
135.160000000033	22.02	3	stimulus	n/a	n/a	white X	n/a	n/a	1	n/a
157.180290099932	9.83171769999899	3	stimulus	n/a	n/a	COQGQOCO	1	1	1	n/a
158.21029009996	0	3	foot step	2	2	n/a	n/a	n/a	1	n/a
158.820290099946	0	3	foot step	1	1	n/a	n/a	n/a	1	n/a
159.490290099988	0	3	foot step	2	2	n/a	n/a	n/a	1	n/a
160.190290099941	0	3	foot step	3	3	n/a	n/a	n/a	1	n/a
160.870290099876	0	3	foot step	2	2	n/a	n/a	n/a	1	n/a
161.540290099918	0	3	foot step	1	1	n/a	n/a	n/a	1	n/a
162.220290099969	0	3	foot step	3	3	n/a	n/a	n/a	1	n/a
162.910290099913	0	3	foot step	2	2	n/a	n/a	n/a	1	n/a
163.620290099876	0	3	foot step	4	4	n/a	n/a	n/a	1	n/a
164.310290099937	0	3	foot step	2	2	n/a	n/a	n/a	1	n/a
165.000290099881	0	3	foot step	4	4	n/a	n/a	n/a	1	n/a
165.660290099913	0	3	foot step	1	1	n/a	n/a	n/a	1	n/a
167.020000000019	5	3	stimulus	n/a	n/a	white X	n/a	n/a	1	n/a
177.160000000033	21.02	4	stimulus	n/a	n/a	white X	n/a	n/a	1	n/a
198.171496900031	9.19154059991706	4	stimulus	n/a	n/a	GCCOGCGO	3	3	1	n/a
199.351496900083	0	4	foot step	2	2	n/a	n/a	n/a	1	n/a
199.981496900087	0	4	foot step	1	1	n/a	n/a	n/a	1	n/a
200.671496900031	0	4	foot step	2	2	n/a	n/a	n/a	1	n/a
201.341496900073	0	4	foot step	3	3	n/a	n/a	n/a	1	n/a
202.021496900008	0	4	foot step	2	2	n/a	n/a	n/a	1	n/a
202.661496900022	0	4	foot step	1	1	n/a	n/a	n/a	1	n/a
203.281496900017	0	4	foot step	3	3	n/a	n/a	n/a	1	n/a
203.961496900069	0	4	foot step	2	2	n/a	n/a	n/a	1	n/a
204.641496900003	0	4	foot step	4	4	n/a	n/a	n/a	1	n/a
205.321496900055	0	4	foot step	2	2	n/a	n/a	n/a	1	n/a
205.971496900078	0	4	foot step	4	4	n/a	n/a	n/a	1	n/a
206.581496900064	0	4	foot step	1	1	n/a	n/a	n/a	1	n/a
207.359999999986	5	4	stimulus	n/a	n/a	white X	n/a	n/a	1	n/a
218.020000000019	25	5	stimulus	n/a	n/a	white X	n/a	n/a	1	n/a
243.026265499997	9.14509669994004	5	stimulus	n/a	n/a	OOOGOOOO	1	1	1	n/a
244.18626550003	0	5	foot step	2	2	n/a	n/a	n/a	1	n/a
244.786265500006	0	5	foot step	1	1	n/a	n/a	n/a	1	n/a
245.416265500011	0	5	foot step	2	2	n/a	n/a	n/a	1	n/a
246.056265500025	0	5	foot step	3	3	n/a	n/a	n/a	1	n/a
246.72626549995	0	5	foot step	2	2	n/a	n/a	n/a	1	n/a
247.316265500034	0	5	foot step	1	1	n/a	n/a	n/a	1	n/a
247.956265500048	0	5	foot step	3	3	n/a	n/a	n/a	1	n/a
248.606265499955	0	5	foot step	2	2	n/a	n/a	n/a	1	n/a
249.276265499997	0	5	foot step	4	4	n/a	n/a	n/a	1	n/a
249.93626550003	0	5	foot step	2	2	n/a	n/a	n/a	1	n/a
250.606265499955	0	5	foot step	4	4	n/a	n/a	n/a	1	n/a
251.246265499969	0	5	foot step	1	1	n/a	n/a	n/a	1	n/a
252.160000000033	5	5	stimulus	n/a	n/a	white X	n/a	n/a	1	n/a
266.300000000047	23.02	6	stimulus	n/a	n/a	white X	n/a	n/a	1	n/a
289.327524199965	9.86077959998511	6	stimulus	n/a	n/a	QGOGQQGO	3	3	1	n/a
290.357524199993	0	6	foot step	2	2	n/a	n/a	n/a	1	n/a
291.007524200017	0	6	foot step	1	1	n/a	n/a	n/a	1	n/a
291.677524199942	0	6	foot step	2	2	n/a	n/a	n/a	1	n/a
292.367524200003	0	6	foot step	3	3	n/a	n/a	n/a	1	n/a
293.057524199947	0	6	foot step	2	2	n/a	n/a	n/a	1	n/a
293.747524200007	0	6	foot step	1	1	n/a	n/a	n/a	1	n/a
294.397524199914	0	6	foot step	3	3	n/a	n/a	n/a	1	n/a
295.077524199965	0	6	foot step	2	2	n/a	n/a	n/a	1	n/a
295.757524200017	0	6	foot step	4	4	n/a	n/a	n/a	1	n/a
296.397524199914	0	6	foot step	2	2	n/a	n/a	n/a	1	n/a
297.087524199975	0	6	foot step	4	4	n/a	n/a	n/a	1	n/a
297.727524199989	0	6	foot step	1	1	n/a	n/a	n/a	1	n/a
299.180000000051	5	6	stimulus	n/a	n/a	white X	n/a	n/a	1	n/a
309.319999999949	21.02	7	stimulus	n/a	n/a	white X	n/a	n/a	1	n/a
330.334868300008	9.25446650001686	7	stimulus	n/a	n/a	OOOOOOQC	0	0	1	n/a
331.364868300036	0	7	foot step	2	2	n/a	n/a	n/a	1	n/a
331.974868300022	0	7	foot step	1	1	n/a	n/a	n/a	1	n/a
332.614868300036	0	7	foot step	2	2	n/a	n/a	n/a	1	n/a
333.264868300059	0	7	foot step	3	3	n/a	n/a	n/a	1	n/a
333.914868299966	0	7	foot step	2	2	n/a	n/a	n/a	1	n/a
334.54486829997	0	7	foot step	1	1	n/a	n/a	n/a	1	n/a
335.174868299975	0	7	foot step	3	3	n/a	n/a	n/a	1	n/a
335.844868300017	0	7	foot step	2	2	n/a	n/a	n/a	1	n/a
336.49486830004	0	7	foot step	4	4	n/a	n/a	n/a	1	n/a
337.154868299956	0	7	foot step	2	2	n/a	n/a	n/a	1	n/a
337.824868299998	0	7	foot step	4	4	n/a	n/a	n/a	1	n/a
338.454868300003	0	7	foot step	1	1	n/a	n/a	n/a	1	n/a
339.579999999958	5	7	stimulus	n/a	n/a	white X	n/a	n/a	1	n/a
348.640000000014	25.02	8	stimulus	n/a	n/a	white X	n/a	n/a	1	n/a
373.660765500041	9.5797859999584	8	stimulus	n/a	n/a	QQCCOCOO	0	0	1	n/a
374.770765500027	0	8	foot step	2	2	n/a	n/a	n/a	1	n/a
375.42076550005	0	8	foot step	1	1	n/a	n/a	n/a	1	n/a
376.040765500045	0	8	foot step	2	2	n/a	n/a	n/a	1	n/a
376.660765500041	0	8	foot step	3	3	n/a	n/a	n/a	1	n/a
377.340765500092	0	8	foot step	2	2	n/a	n/a	n/a	1	n/a
377.960765500087	0	8	foot step	1	1	n/a	n/a	n/a	1	n/a
378.610765499994	0	8	foot step	3	3	n/a	n/a	n/a	1	n/a
379.290765500045	0	8	foot step	2	2	n/a	n/a	n/a	1	n/a
380.000765500008	0	8	foot step	4	4	n/a	n/a	n/a	1	n/a
380.67076550005	0	8	foot step	2	2	n/a	n/a	n/a	1	n/a
381.370765500003	0	8	foot step	4	4	n/a	n/a	n/a	1	n/a
382.000765500008	0	8	foot step	1	1	n/a	n/a	n/a	1	n/a
383.239999999991	5	8	stimulus	n/a	n/a	white X	n/a	n/a	1	n/a
394.560000000056	22.02	9	stimulus	n/a	n/a	white X	n/a	n/a	1	n/a
416.57524149993	8.75636230001692	9	stimulus	n/a	n/a	GCQCGOGO	3	3	1	n/a
417.795241499902	0	9	foot step	2	2	n/a	n/a	n/a	1	n/a
418.395241499878	0	9	foot step	1	1	n/a	n/a	n/a	1	n/a
419.025241499883	0	9	foot step	2	2	n/a	n/a	n/a	1	n/a
419.665241499897	0	9	foot step	3	3	n/a	n/a	n/a	1	n/a
420.265241499874	0	9	foot step	2	2	n/a	n/a	n/a	1	n/a
420.905241499888	0	9	foot step	1	1	n/a	n/a	n/a	1	n/a
421.515241499874	0	9	foot step	3	3	n/a	n/a	n/a	1	n/a
422.145241499878	0	9	foot step	2	2	n/a	n/a	n/a	1	n/a
422.795241499902	0	9	foot step	4	4	n/a	n/a	n/a	1	n/a
423.425241499906	0	9	foot step	2	2	n/a	n/a	n/a	1	n/a
424.035241499892	0	9	foot step	4	4	n/a	n/a	n/a	1	n/a
424.635241499986	0	9	foot step	1	1	n/a	n/a	n/a	1	n/a
425.319999999949	5	9	stimulus	n/a	n/a	white X	n/a	n/a	1	n/a
435.280000000028	22	10	stimulus	n/a	n/a	white X	n/a	n/a	1	n/a
457.293818700011	10.6788592999801	10	stimulus	n/a	n/a	QGQGQGQQ	3	3	1	n/a
458.643818699988	0	10	foot step	2	2	n/a	n/a	n/a	1	n/a
459.173818700016	0	10	foot step	1	1	n/a	n/a	n/a	1	n/a
459.773818699992	0	10	foot step	2	2	n/a	n/a	n/a	1	n/a
460.373818699969	0	10	foot step	3	3	n/a	n/a	n/a	1	n/a
461.043818700011	0	10	foot step	2	2	n/a	n/a	n/a	1	n/a
461.623818699969	0	10	foot step	1	1	n/a	n/a	n/a	1	n/a
462.253818699974	0	10	foot step	3	3	n/a	n/a	n/a	1	n/a
462.893818699988	0	10	foot step	2	2	n/a	n/a	n/a	1	n/a
463.523818699992	0	10	foot step	4	4	n/a	n/a	n/a	1	n/a
464.133818699978	0	10	foot step	2	2	n/a	n/a	n/a	1	n/a
464.793818700011	0	10	foot step	4	4	n/a	n/a	n/a	1	n/a
465.413818700006	0	10	foot step	1	1	n/a	n/a	n/a	1	n/a
467.979999999981	5	10	stimulus	n/a	n/a	white X	n/a	n/a	1	n/a
475.939999999944	23	11	stimulus	n/a	n/a	white X	n/a	n/a	1	n/a
498.945179700037	9.23942839994561	11	stimulus	n/a	n/a	CQQOQOCC	0	0	1	n/a
500.045179700013	0	11	foot step	2	2	n/a	n/a	n/a	1	n/a
500.665179700009	0	11	foot step	1	1	n/a	n/a	n/a	1	n/a
501.295179700013	0	11	foot step	2	2	n/a	n/a	n/a	1	n/a
501.955179700046	0	11	foot step	3	3	n/a	n/a	n/a	1	n/a
502.625179700088	0	11	foot step	2	2	n/a	n/a	n/a	1	n/a
503.275179699995	0	11	foot step	1	1	n/a	n/a	n/a	1	n/a
503.955179700046	0	11	foot step	3	3	n/a	n/a	n/a	1	n/a
504.59517970006	0	11	foot step	2	2	n/a	n/a	n/a	1	n/a
505.275179699995	0	11	foot step	4	4	n/a	n/a	n/a	1	n/a
505.915179700009	0	11	foot step	2	2	n/a	n/a	n/a	1	n/a
506.605179700069	0	11	foot step	4	4	n/a	n/a	n/a	1	n/a
507.275179699995	0	11	foot step	1	1	n/a	n/a	n/a	1	n/a
508.180000000051	5	11	stimulus	n/a	n/a	white X	n/a	n/a	1	n/a
