onset	duration	trial_number	event_type	executed_movement	correct_movement	shown_stimulus	reported_gs	correct_gs	included_trial	reason_for_exclusion
12.9799999999814	22.02	1	stimulus	n/a	n/a	white X	n/a	n/a	0	test trial
35	10.6878609999549	1	stimulus	n/a	n/a	OQCQQGGG	3	3	0	test trial
35.8136695999419	0	1	finger press	4	4	n/a	n/a	n/a	0	test trial
36.4056800999679	0	1	finger press	3	3	n/a	n/a	n/a	0	test trial
36.9818314999575	0	1	finger press	4	4	n/a	n/a	n/a	0	test trial
37.6376305000158	0	1	finger press	1	1	n/a	n/a	n/a	0	test trial
38.2777763999766	0	1	finger press	4	4	n/a	n/a	n/a	0	test trial
38.9180626999587	0	1	finger press	1	1	n/a	n/a	n/a	0	test trial
39.5577900999924	0	1	finger press	2	2	n/a	n/a	n/a	0	test trial
40.1976338999812	0	1	finger press	4	4	n/a	n/a	n/a	0	test trial
40.8297519999323	0	1	finger press	3	3	n/a	n/a	n/a	0	test trial
41.4298635999439	0	1	finger press	2	2	n/a	n/a	n/a	0	test trial
42.0617887999397	0	1	finger press	1	1	n/a	n/a	n/a	0	test trial
42.7496930999914	0	1	finger press	2	2	n/a	n/a	n/a	0	test trial
45.6800000000512	5	1	stimulus	n/a	n/a	white X	n/a	n/a	0	test trial
61.1999999999534	23	2	stimulus	n/a	n/a	white X	n/a	n/a	1	n/a
84.2130204000277	8.29876259993762	2	stimulus	n/a	n/a	GQQOOOCG	2	2	1	n/a
84.5097841999959	0	2	finger press	4	4	n/a	n/a	n/a	1	n/a
85.1503171999939	0	2	finger press	3	3	n/a	n/a	n/a	1	n/a
85.725687499973	0	2	finger press	4	4	n/a	n/a	n/a	1	n/a
86.3896221999312	0	2	finger press	1	1	n/a	n/a	n/a	1	n/a
87.0297548000235	0	2	finger press	4	4	n/a	n/a	n/a	1	n/a
87.7337755999761	0	2	finger press	1	1	n/a	n/a	n/a	1	n/a
88.3658192999428	0	2	finger press	2	2	n/a	n/a	n/a	1	n/a
88.9659018999664	0	2	finger press	4	4	n/a	n/a	n/a	1	n/a
89.5814311000286	0	2	finger press	3	3	n/a	n/a	n/a	1	n/a
90.2459816000191	0	2	finger press	2	2	n/a	n/a	n/a	1	n/a
90.8536702999845	0	2	finger press	1	1	n/a	n/a	n/a	1	n/a
91.5174110999797	0	2	finger press	2	2	n/a	n/a	n/a	1	n/a
92.5	5	2	stimulus	n/a	n/a	white X	n/a	n/a	1	n/a
104.199999999953	23.02	3	stimulus	n/a	n/a	white X	n/a	n/a	1	n/a
127.223060999997	8.77085279999301	3	stimulus	n/a	n/a	QGCQQGCG	3	3	1	n/a
127.693753600004	0	3	finger press	4	4	n/a	n/a	n/a	1	n/a
128.317825699924	0	3	finger press	3	3	n/a	n/a	n/a	1	n/a
128.88567009999	0	3	finger press	4	4	n/a	n/a	n/a	1	n/a
129.517694199923	0	3	finger press	1	1	n/a	n/a	n/a	1	n/a
130.109815899981	0	3	finger press	4	4	n/a	n/a	n/a	1	n/a
130.774485299946	0	3	finger press	1	1	n/a	n/a	n/a	1	n/a
131.389692099998	0	3	finger press	2	2	n/a	n/a	n/a	1	n/a
132.030100299977	0	3	finger press	4	4	n/a	n/a	n/a	1	n/a
132.685767599964	0	3	finger press	3	3	n/a	n/a	n/a	1	n/a
133.29386440001	0	3	finger press	2	2	n/a	n/a	n/a	1	n/a
133.941976299975	0	3	finger press	1	1	n/a	n/a	n/a	1	n/a
134.557737999945	0	3	finger press	2	2	n/a	n/a	n/a	1	n/a
135.979999999981	5	3	stimulus	n/a	n/a	white X	n/a	n/a	1	n/a
149.280000000028	23.02	4	stimulus	n/a	n/a	white X	n/a	n/a	1	n/a
172.301910299924	9.66900660004467	4	stimulus	n/a	n/a	GOCGQCQO	2	2	1	n/a
172.717787700007	0	4	finger press	4	4	n/a	n/a	n/a	1	n/a
173.269850599929	0	4	finger press	3	3	n/a	n/a	n/a	1	n/a
173.813873099978	0	4	finger press	4	4	n/a	n/a	n/a	1	n/a
174.358093100018	0	4	finger press	1	1	n/a	n/a	n/a	1	n/a
174.949895899976	0	4	finger press	4	4	n/a	n/a	n/a	1	n/a
175.581964700017	0	4	finger press	1	1	n/a	n/a	n/a	1	n/a
176.205812999979	0	4	finger press	2	2	n/a	n/a	n/a	1	n/a
176.87768679997	0	4	finger press	4	4	n/a	n/a	n/a	1	n/a
177.477873199969	0	4	finger press	3	3	n/a	n/a	n/a	1	n/a
178.109814699972	0	4	finger press	2	2	n/a	n/a	n/a	1	n/a
178.701786899939	0	4	finger press	1	1	n/a	n/a	n/a	1	n/a
179.397901499993	0	4	finger press	2	2	n/a	n/a	n/a	1	n/a
181.959999999963	5	4	stimulus	n/a	n/a	white X	n/a	n/a	1	n/a
191.140000000014	24.02	5	stimulus	n/a	n/a	white X	n/a	n/a	1	n/a
215.17398089997	8.64474260003772	5	stimulus	n/a	n/a	OOGGQCQQ	2	2	1	n/a
215.541912599932	0	5	finger press	4	4	n/a	n/a	n/a	1	n/a
216.157728799968	0	5	finger press	3	3	n/a	n/a	n/a	1	n/a
216.790017499938	0	5	finger press	4	4	n/a	n/a	n/a	1	n/a
217.445910600014	0	5	finger press	1	1	n/a	n/a	n/a	1	n/a
218.133821800002	0	5	finger press	4	4	n/a	n/a	n/a	1	n/a
218.78191879997	0	5	finger press	1	1	n/a	n/a	n/a	1	n/a
219.389696500031	0	5	finger press	2	2	n/a	n/a	n/a	1	n/a
220.093986299937	0	5	finger press	4	4	n/a	n/a	n/a	1	n/a
220.830046799965	0	5	finger press	3	3	n/a	n/a	n/a	1	n/a
221.477478399989	0	5	finger press	2	2	n/a	n/a	n/a	1	n/a
222.205510600004	0	5	finger press	1	1	n/a	n/a	n/a	1	n/a
222.917493499932	0	5	finger press	2	2	n/a	n/a	n/a	1	n/a
223.800000000047	5	5	stimulus	n/a	n/a	white X	n/a	n/a	1	n/a
234.540000000037	21.02	6	stimulus	n/a	n/a	white X	n/a	n/a	1	n/a
255.571610599989	11.1676146000391	6	stimulus	n/a	n/a	GQOQQGOC	2	2	1	n/a
255.925962499925	0	6	finger press	4	4	n/a	n/a	n/a	1	n/a
256.517824099981	0	6	finger press	3	3	n/a	n/a	n/a	1	n/a
257.181967800017	0	6	finger press	4	4	n/a	n/a	n/a	1	n/a
257.805770999985	0	6	finger press	1	1	n/a	n/a	n/a	1	n/a
258.398009299999	0	6	finger press	4	4	n/a	n/a	n/a	1	n/a
259.117948499974	0	6	finger press	1	1	n/a	n/a	n/a	1	n/a
259.637926399941	0	6	finger press	2	2	n/a	n/a	n/a	1	n/a
260.34179779992	0	6	finger press	4	4	n/a	n/a	n/a	1	n/a
261.01429969992	0	6	finger press	3	3	n/a	n/a	n/a	1	n/a
261.68592999992	0	6	finger press	2	2	n/a	n/a	n/a	1	n/a
262.334383599926	0	6	finger press	1	1	n/a	n/a	n/a	1	n/a
263.05388989998	0	6	finger press	2	2	n/a	n/a	n/a	1	n/a
266.719999999972	5	6	stimulus	n/a	n/a	white X	n/a	n/a	1	n/a
275.760000000009	24	7	stimulus	n/a	n/a	white X	n/a	n/a	1	n/a
299.779860200011	8.09166499995627	7	stimulus	n/a	n/a	OCCQCGCQ	1	1	1	n/a
300.373948600027	0	7	finger press	4	4	n/a	n/a	n/a	1	n/a
300.926551399985	0	7	finger press	3	3	n/a	n/a	n/a	1	n/a
301.581843400025	0	7	finger press	4	4	n/a	n/a	n/a	1	n/a
302.23795869993	0	7	finger press	1	1	n/a	n/a	n/a	1	n/a
302.846277999924	0	7	finger press	4	4	n/a	n/a	n/a	1	n/a
303.493901400012	0	7	finger press	1	1	n/a	n/a	n/a	1	n/a
304.086027799989	0	7	finger press	2	2	n/a	n/a	n/a	1	n/a
304.757978599984	0	7	finger press	4	4	n/a	n/a	n/a	1	n/a
305.382019300014	0	7	finger press	3	3	n/a	n/a	n/a	1	n/a
306.021911500022	0	7	finger press	2	2	n/a	n/a	n/a	1	n/a
306.622013699962	0	7	finger press	1	1	n/a	n/a	n/a	1	n/a
307.245984299923	0	7	finger press	2	2	n/a	n/a	n/a	1	n/a
307.859999999986	5	7	stimulus	n/a	n/a	white X	n/a	n/a	1	n/a
319.439999999944	25.02	8	stimulus	n/a	n/a	white X	n/a	n/a	1	n/a
344.466329599964	8.96378620003816	8	stimulus	n/a	n/a	QQOCOOQO	0	0	1	n/a
344.97386649996	0	8	finger press	4	4	n/a	n/a	n/a	1	n/a
345.574551899917	0	8	finger press	3	3	n/a	n/a	n/a	1	n/a
346.125965100015	0	8	finger press	4	4	n/a	n/a	n/a	1	n/a
346.813791099936	0	8	finger press	1	1	n/a	n/a	n/a	1	n/a
347.430052899988	0	8	finger press	4	4	n/a	n/a	n/a	1	n/a
348.094062599936	0	8	finger press	1	1	n/a	n/a	n/a	1	n/a
348.717952499981	0	8	finger press	2	2	n/a	n/a	n/a	1	n/a
349.341970199952	0	8	finger press	4	4	n/a	n/a	n/a	1	n/a
349.973656699993	0	8	finger press	3	3	n/a	n/a	n/a	1	n/a
350.64617209998	0	8	finger press	2	2	n/a	n/a	n/a	1	n/a
351.269889499992	0	8	finger press	1	1	n/a	n/a	n/a	1	n/a
351.925714800018	0	8	finger press	2	2	n/a	n/a	n/a	1	n/a
353.420000000042	5	8	stimulus	n/a	n/a	white X	n/a	n/a	1	n/a
364.839999999967	23	9	stimulus	n/a	n/a	white X	n/a	n/a	1	n/a
387.856854800018	8.31492019991856	9	stimulus	n/a	n/a	QCGOGOOG	2	3	1	n/a
388.277885999996	0	9	finger press	4	4	n/a	n/a	n/a	1	n/a
388.966004399932	0	9	finger press	3	3	n/a	n/a	n/a	1	n/a
389.541851399932	0	9	finger press	4	4	n/a	n/a	n/a	1	n/a
390.190259699943	0	9	finger press	1	1	n/a	n/a	n/a	1	n/a
390.829913699999	0	9	finger press	4	4	n/a	n/a	n/a	1	n/a
391.574064399931	0	9	finger press	1	1	n/a	n/a	n/a	1	n/a
392.254040300031	0	9	finger press	2	2	n/a	n/a	n/a	1	n/a
392.942408600007	0	9	finger press	4	4	n/a	n/a	n/a	1	n/a
393.590048599988	0	9	finger press	3	3	n/a	n/a	n/a	1	n/a
394.18999679992	0	9	finger press	2	2	n/a	n/a	n/a	1	n/a
394.821805099957	0	9	finger press	1	1	n/a	n/a	n/a	1	n/a
395.501994599937	0	9	finger press	2	2	n/a	n/a	n/a	1	n/a
396.160000000033	5	9	stimulus	n/a	n/a	white X	n/a	n/a	1	n/a
407.119999999995	23	10	stimulus	n/a	n/a	white X	n/a	n/a	1	n/a
430.136727400008	10.377603199915	10	stimulus	n/a	n/a	QQCOGGOQ	2	2	1	n/a
430.685964099946	0	10	finger press	4	4	n/a	n/a	n/a	1	n/a
431.190039100009	0	10	finger press	3	3	n/a	n/a	n/a	1	n/a
431.790602199966	0	10	finger press	4	4	n/a	n/a	n/a	1	n/a
432.413993099937	0	10	finger press	1	1	n/a	n/a	n/a	1	n/a
432.990034000017	0	10	finger press	4	4	n/a	n/a	n/a	1	n/a
433.646161600016	0	10	finger press	1	1	n/a	n/a	n/a	1	n/a
434.269864299917	0	10	finger press	2	2	n/a	n/a	n/a	1	n/a
434.878098799963	0	10	finger press	4	4	n/a	n/a	n/a	1	n/a
435.534665799933	0	10	finger press	3	3	n/a	n/a	n/a	1	n/a
436.205870799953	0	10	finger press	2	2	n/a	n/a	n/a	1	n/a
436.950158199994	0	10	finger press	1	1	n/a	n/a	n/a	1	n/a
437.606150200008	0	10	finger press	2	2	n/a	n/a	n/a	1	n/a
440.5	5	10	stimulus	n/a	n/a	white X	n/a	n/a	1	n/a
449.660000000033	22	11	stimulus	n/a	n/a	white X	n/a	n/a	1	n/a
471.681953500025	9.73674239998218	11	stimulus	n/a	n/a	CQCCOQOC	0	0	1	n/a
472.398091499927	0	11	finger press	4	4	n/a	n/a	n/a	1	n/a
472.926046599983	0	11	finger press	3	3	n/a	n/a	n/a	1	n/a
473.582007499994	0	11	finger press	4	4	n/a	n/a	n/a	1	n/a
474.334121500026	0	11	finger press	1	1	n/a	n/a	n/a	1	n/a
474.990092499997	0	11	finger press	4	4	n/a	n/a	n/a	1	n/a
475.710023700027	0	11	finger press	1	1	n/a	n/a	n/a	1	n/a
476.390080999932	0	11	finger press	2	2	n/a	n/a	n/a	1	n/a
477.054075699998	0	11	finger press	4	4	n/a	n/a	n/a	1	n/a
477.750100599951	0	11	finger press	3	3	n/a	n/a	n/a	1	n/a
478.469853700022	0	11	finger press	2	2	n/a	n/a	n/a	1	n/a
479.206356399925	0	11	finger press	1	1	n/a	n/a	n/a	1	n/a
479.925977799925	0	11	finger press	2	2	n/a	n/a	n/a	1	n/a
481.400000000023	5	11	stimulus	n/a	n/a	white X	n/a	n/a	1	n/a
