onset	duration	trial_number	event_type	executed_movement	correct_movement	shown_stimulus	reported_gs	correct_gs	included_trial	reason_for_exclusion
9.97999999998137	25.02	1	stimulus	n/a	n/a	white X	n/a	n/a	0	test trial
35	10.5929704001173	1	stimulus	n/a	n/a	QQCQOCGO	1	1	0	test trial
36.4399999999441	0	1	foot step	4	4	n/a	n/a	n/a	0	test trial
37.1099999998696	0	1	foot step	3	3	n/a	n/a	n/a	0	test trial
37.7700000000186	0	1	foot step	4	4	n/a	n/a	n/a	0	test trial
38.4399999999441	0	1	foot step	1	1	n/a	n/a	n/a	0	test trial
39.1499999999069	0	1	foot step	4	4	n/a	n/a	n/a	0	test trial
39.8300000000745	0	1	foot step	1	1	n/a	n/a	n/a	0	test trial
40.6099999998696	0	1	foot step	2	2	n/a	n/a	n/a	0	test trial
41.910000000149	0	1	foot step	4	4	n/a	n/a	n/a	0	test trial
42.5200000000186	0	1	foot step	3	3	n/a	n/a	n/a	0	test trial
43.1699999999255	0	1	foot step	2	2	n/a	n/a	n/a	0	test trial
43.8100000000559	0	1	foot step	1	1	n/a	n/a	n/a	0	test trial
44.5099999997765	0	1	foot step	2	2	n/a	n/a	n/a	0	test trial
45.660000000149	5	1	stimulus	n/a	n/a	white X	n/a	n/a	0	test trial
98.3599999998696	24	2	stimulus	n/a	n/a	white X	n/a	n/a	1	n/a
122.303584699985	8.68772300006822	2	stimulus	n/a	n/a	QQQOCQQO	0	0	1	n/a
123.493584699929	0	2	foot step	4	4	n/a	n/a	n/a	1	n/a
124.183584699873	0	2	foot step	3	3	n/a	n/a	n/a	1	n/a
124.83358469978	0	2	foot step	4	4	n/a	n/a	n/a	1	n/a
125.503584700171	0	2	foot step	1	1	n/a	n/a	n/a	1	n/a
126.163584699854	0	2	foot step	4	4	n/a	n/a	n/a	1	n/a
126.853584699798	0	2	foot step	1	1	n/a	n/a	n/a	1	n/a
127.563584699761	0	2	foot step	2	2	n/a	n/a	n/a	1	n/a
128.233584700152	0	2	foot step	4	4	n/a	n/a	n/a	1	n/a
128.953584699892	0	2	foot step	3	3	n/a	n/a	n/a	1	n/a
129.653584700078	0	2	foot step	2	2	n/a	n/a	n/a	1	n/a
130.303584699985	0	2	foot step	1	1	n/a	n/a	n/a	1	n/a
131.033584699966	0	2	foot step	2	2	n/a	n/a	n/a	1	n/a
131.060000000056	5	2	stimulus	n/a	n/a	white X	n/a	n/a	1	n/a
154.740000000224	24.02	3	stimulus	n/a	n/a	white X	n/a	n/a	1	n/a
178.691200600006	9.95852499967441	3	stimulus	n/a	n/a	CQOGQCGG	3	3	1	n/a
180.201200599782	0	3	foot step	4	4	n/a	n/a	n/a	1	n/a
180.911200600211	0	3	foot step	3	3	n/a	n/a	n/a	1	n/a
181.591200599913	0	3	foot step	4	4	n/a	n/a	n/a	1	n/a
182.321200599894	0	3	foot step	1	1	n/a	n/a	n/a	1	n/a
183.001200600062	0	3	foot step	4	4	n/a	n/a	n/a	1	n/a
183.691200600006	0	3	foot step	1	1	n/a	n/a	n/a	1	n/a
184.38120059995	0	3	foot step	2	2	n/a	n/a	n/a	1	n/a
185.101200600155	0	3	foot step	4	4	n/a	n/a	n/a	1	n/a
185.761200599838	0	3	foot step	3	3	n/a	n/a	n/a	1	n/a
186.471200599801	0	3	foot step	2	2	n/a	n/a	n/a	1	n/a
187.181200600229	0	3	foot step	1	1	n/a	n/a	n/a	1	n/a
187.891200600192	0	3	foot step	2	2	n/a	n/a	n/a	1	n/a
188.720000000205	5	3	stimulus	n/a	n/a	white X	n/a	n/a	1	n/a
211.64000000013	22	4	stimulus	n/a	n/a	white X	n/a	n/a	1	n/a
233.57549839979	10.4055062001571	4	stimulus	n/a	n/a	OOCCGQGO	2	2	1	n/a
234.815498400014	0	4	foot step	4	4	n/a	n/a	n/a	1	n/a
235.475498399697	0	4	foot step	3	3	n/a	n/a	n/a	1	n/a
236.145498399623	0	4	foot step	4	4	n/a	n/a	n/a	1	n/a
236.82549839979	0	4	foot step	1	1	n/a	n/a	n/a	1	n/a
237.485498399939	0	4	foot step	4	4	n/a	n/a	n/a	1	n/a
238.115498399828	0	4	foot step	1	1	n/a	n/a	n/a	1	n/a
238.795498399995	0	4	foot step	2	2	n/a	n/a	n/a	1	n/a
239.515498399734	0	4	foot step	4	4	n/a	n/a	n/a	1	n/a
240.165498399641	0	4	foot step	3	3	n/a	n/a	n/a	1	n/a
240.82549839979	0	4	foot step	2	2	n/a	n/a	n/a	1	n/a
241.505498399958	0	4	foot step	1	1	n/a	n/a	n/a	1	n/a
242.165498399641	0	4	foot step	2	2	n/a	n/a	n/a	1	n/a
244.040000000037	5	4	stimulus	n/a	n/a	white X	n/a	n/a	1	n/a
268.600000000093	21	5	stimulus	n/a	n/a	white X	n/a	n/a	1	n/a
289.541358300019	10.2361881998368	5	stimulus	n/a	n/a	CGQGQCQG	3	3	1	n/a
290.841358299833	0	5	foot step	4	4	n/a	n/a	n/a	1	n/a
291.561358300038	0	5	foot step	3	3	n/a	n/a	n/a	1	n/a
292.181358300149	0	5	foot step	4	4	n/a	n/a	n/a	1	n/a
292.811358300038	0	5	foot step	1	1	n/a	n/a	n/a	1	n/a
293.441358299926	0	5	foot step	4	4	n/a	n/a	n/a	1	n/a
294.101358300075	0	5	foot step	1	1	n/a	n/a	n/a	1	n/a
294.731358299963	0	5	foot step	2	2	n/a	n/a	n/a	1	n/a
295.411358300131	0	5	foot step	4	4	n/a	n/a	n/a	1	n/a
296.071358299814	0	5	foot step	3	3	n/a	n/a	n/a	1	n/a
296.741358300205	0	5	foot step	2	2	n/a	n/a	n/a	1	n/a
297.38135829987	0	5	foot step	1	1	n/a	n/a	n/a	1	n/a
298.011358300224	0	5	foot step	2	2	n/a	n/a	n/a	1	n/a
299.839999999851	5	5	stimulus	n/a	n/a	white X	n/a	n/a	1	n/a
318.100000000093	24	6	stimulus	n/a	n/a	white X	n/a	n/a	1	n/a
342.036479500122	9.06694559985772	6	stimulus	n/a	n/a	GQQGOCCO	2	2	1	n/a
343.346479500178	0	6	foot step	4	4	n/a	n/a	n/a	1	n/a
344.016479500104	0	6	foot step	3	3	n/a	n/a	n/a	1	n/a
344.636479500216	0	6	foot step	4	4	n/a	n/a	n/a	1	n/a
345.296479499899	0	6	foot step	1	1	n/a	n/a	n/a	1	n/a
345.936479500029	0	6	foot step	4	4	n/a	n/a	n/a	1	n/a
346.626479499973	0	6	foot step	1	1	n/a	n/a	n/a	1	n/a
347.236479500309	0	6	foot step	2	2	n/a	n/a	n/a	1	n/a
347.926479500253	0	6	foot step	4	4	n/a	n/a	n/a	1	n/a
348.57647950016	0	6	foot step	3	3	n/a	n/a	n/a	1	n/a
349.286479500122	0	6	foot step	2	2	n/a	n/a	n/a	1	n/a
349.916479500011	0	6	foot step	1	1	n/a	n/a	n/a	1	n/a
350.536479500122	0	6	foot step	2	2	n/a	n/a	n/a	1	n/a
351.160000000149	5	6	stimulus	n/a	n/a	white X	n/a	n/a	1	n/a
371.759999999776	23.02	7	stimulus	n/a	n/a	white X	n/a	n/a	1	n/a
394.708610299975	9.49121390003711	7	stimulus	n/a	n/a	GOCOGOOO	2	2	1	n/a
396.018610300031	0	7	foot step	4	4	n/a	n/a	n/a	1	n/a
396.658610300161	0	7	foot step	3	3	n/a	n/a	n/a	1	n/a
397.318610299844	0	7	foot step	4	4	n/a	n/a	n/a	1	n/a
397.98861029977	0	7	foot step	1	1	n/a	n/a	n/a	1	n/a
398.618610300124	0	7	foot step	4	4	n/a	n/a	n/a	1	n/a
399.278610299807	0	7	foot step	1	1	n/a	n/a	n/a	1	n/a
399.908610300161	0	7	foot step	2	2	n/a	n/a	n/a	1	n/a
400.588610299863	0	7	foot step	4	4	n/a	n/a	n/a	1	n/a
401.228610299993	0	7	foot step	3	3	n/a	n/a	n/a	1	n/a
401.908610300161	0	7	foot step	2	2	n/a	n/a	n/a	1	n/a
402.578610300086	0	7	foot step	1	1	n/a	n/a	n/a	1	n/a
403.23861029977	0	7	foot step	2	2	n/a	n/a	n/a	1	n/a
404.259999999776	5	7	stimulus	n/a	n/a	white X	n/a	n/a	1	n/a
428.799999999814	22	8	stimulus	n/a	n/a	white X	n/a	n/a	1	n/a
450.743204699829	8.79228900000453	8	stimulus	n/a	n/a	GCQCQQQC	1	1	1	n/a
451.983204700053	0	8	foot step	4	4	n/a	n/a	n/a	1	n/a
452.623204699717	0	8	foot step	3	3	n/a	n/a	n/a	1	n/a
453.263204699848	0	8	foot step	4	4	n/a	n/a	n/a	1	n/a
453.913204699755	0	8	foot step	1	1	n/a	n/a	n/a	1	n/a
454.553204699885	0	8	foot step	4	4	n/a	n/a	n/a	1	n/a
455.203204699792	0	8	foot step	1	1	n/a	n/a	n/a	1	n/a
455.843204699922	0	8	foot step	2	2	n/a	n/a	n/a	1	n/a
456.483204700053	0	8	foot step	4	4	n/a	n/a	n/a	1	n/a
457.123204699717	0	8	foot step	3	3	n/a	n/a	n/a	1	n/a
457.793204699643	0	8	foot step	2	2	n/a	n/a	n/a	1	n/a
458.463204700034	0	8	foot step	1	1	n/a	n/a	n/a	1	n/a
459.203204699792	0	8	foot step	2	2	n/a	n/a	n/a	1	n/a
459.600000000093	5	8	stimulus	n/a	n/a	white X	n/a	n/a	1	n/a
477.439999999944	23	9	stimulus	n/a	n/a	white X	n/a	n/a	1	n/a
500.383841899689	7.88940210035071	9	stimulus	n/a	n/a	QOOCQOGO	2	1	1	n/a
501.543841899838	0	9	foot step	4	4	n/a	n/a	n/a	1	n/a
502.153841899708	0	9	foot step	3	3	n/a	n/a	n/a	1	n/a
502.823841899633	0	9	foot step	4	4	n/a	n/a	n/a	1	n/a
503.483841899782	0	9	foot step	1	1	n/a	n/a	n/a	1	n/a
504.133841899689	0	9	foot step	4	4	n/a	n/a	n/a	1	n/a
504.783841899596	0	9	foot step	1	1	n/a	n/a	n/a	1	n/a
505.433841899503	0	9	foot step	2	2	n/a	n/a	n/a	1	n/a
506.093841899652	0	9	foot step	4	4	n/a	n/a	n/a	1	n/a
506.763841899578	0	9	foot step	3	3	n/a	n/a	n/a	1	n/a
507.47384189954	0	9	foot step	2	2	n/a	n/a	n/a	1	n/a
508.123841899913	0	9	foot step	1	1	n/a	n/a	n/a	1	n/a
508.339999999851	5	9	stimulus	n/a	n/a	white X	n/a	n/a	1	n/a
508.823841899633	0	9	foot step	2	2	n/a	n/a	n/a	1	n/a
531.660000000149	22	10	stimulus	n/a	n/a	white X	n/a	n/a	1	n/a
553.599162499886	9.0627966998145	10	stimulus	n/a	n/a	QGGGQGCQ	4	4	1	n/a
554.859162499662	0	10	foot step	4	4	n/a	n/a	n/a	1	n/a
555.479162499774	0	10	foot step	3	3	n/a	n/a	n/a	1	n/a
556.129162499681	0	10	foot step	4	4	n/a	n/a	n/a	1	n/a
556.759162500035	0	10	foot step	1	1	n/a	n/a	n/a	1	n/a
557.389162499923	0	10	foot step	4	4	n/a	n/a	n/a	1	n/a
558.029162500054	0	10	foot step	1	1	n/a	n/a	n/a	1	n/a
558.6491624997	0	10	foot step	2	2	n/a	n/a	n/a	1	n/a
559.319162500091	0	10	foot step	4	4	n/a	n/a	n/a	1	n/a
559.989162500016	0	10	foot step	3	3	n/a	n/a	n/a	1	n/a
560.679162499961	0	10	foot step	2	2	n/a	n/a	n/a	1	n/a
561.309162499849	0	10	foot step	1	1	n/a	n/a	n/a	1	n/a
561.929162499961	0	10	foot step	2	2	n/a	n/a	n/a	1	n/a
562.720000000205	5	10	stimulus	n/a	n/a	white X	n/a	n/a	1	n/a
581.520000000019	24	11	stimulus	n/a	n/a	white X	n/a	n/a	1	n/a
605.454473899677	9.12274830043316	11	stimulus	n/a	n/a	CGQCCCOO	1	1	1	n/a
606.614473899826	0	11	foot step	4	4	n/a	n/a	n/a	1	n/a
607.27447389951	0	11	foot step	3	3	n/a	n/a	n/a	1	n/a
607.884473899845	0	11	foot step	4	4	n/a	n/a	n/a	1	n/a
608.474473899696	0	11	foot step	1	1	n/a	n/a	n/a	1	n/a
609.104473899584	0	11	foot step	4	4	n/a	n/a	n/a	1	n/a
609.734473899473	0	11	foot step	1	1	n/a	n/a	n/a	1	n/a
610.344473899808	0	11	foot step	2	2	n/a	n/a	n/a	1	n/a
610.984473899473	0	11	foot step	4	4	n/a	n/a	n/a	1	n/a
611.644473899622	0	11	foot step	3	3	n/a	n/a	n/a	1	n/a
612.354473899584	0	11	foot step	2	2	n/a	n/a	n/a	1	n/a
612.974473899696	0	11	foot step	1	1	n/a	n/a	n/a	1	n/a
613.604473899584	0	11	foot step	2	2	n/a	n/a	n/a	1	n/a
614.64000000013	5	11	stimulus	n/a	n/a	white X	n/a	n/a	1	n/a
