onset	duration	trial_type	Response	Stimulus	RT
4.562	0.2	auditory standard stimulus presentation	n/a	n/a	n/a
7.376	0.2	auditory standard stimulus presentation	n/a	n/a	n/a
9.394	0.2	auditory standard stimulus presentation	n/a	n/a	n/a
12.24	0.2	auditory standard stimulus presentation	0.0	standard	n/a
14.673	0.2	auditory standard stimulus presentation	0.0	standard	n/a
16.707	0.404	behavioral response time following auditory oddball stimulus onset	1.0	target	n/a
16.707	0.2	auditory oddball stimulus presentation	1.0	target	n/a
19.338	0.2	auditory standard stimulus presentation	0.0	standard	n/a
22.384	0.2	auditory standard stimulus presentation	0.0	standard	n/a
25.212	0.2	auditory standard stimulus presentation	0.0	standard	n/a
28.258	0.2	auditory standard stimulus presentation	0.0	standard	n/a
31.086	0.2	auditory standard stimulus presentation	0.0	standard	n/a
33.122	0.373	behavioral response time following auditory oddball stimulus onset	1.0	target	n/a
33.122	0.2	auditory oddball stimulus presentation	1.0	target	n/a
35.951	0.2	auditory standard stimulus presentation	0.0	standard	n/a
38.996	0.2	auditory oddball stimulus presentation	1.0	target	n/a
38.996	0.419	behavioral response time following auditory oddball stimulus onset	1.0	target	n/a
42.04	0.2	auditory standard stimulus presentation	0.0	standard	n/a
44.87	0.2	auditory oddball stimulus presentation	1.0	target	n/a
44.87	0.381	behavioral response time following auditory oddball stimulus onset	1.0	target	n/a
47.914	0.2	auditory standard stimulus presentation	0.0	standard	n/a
50.96	0.2	auditory oddball stimulus presentation	1.0	target	n/a
50.96	0.328	behavioral response time following auditory oddball stimulus onset	1.0	target	n/a
53.193	0.2	auditory standard stimulus presentation	0.0	standard	n/a
56.221	0.2	auditory standard stimulus presentation	0.0	standard	n/a
58.454	0.2	auditory standard stimulus presentation	0.0	standard	n/a
61.101	0.2	auditory standard stimulus presentation	0.0	standard	n/a
63.733	0.2	auditory standard stimulus presentation	0.0	standard	n/a
66.149	0.2	auditory standard stimulus presentation	0.0	standard	n/a
68.78	0.2	auditory standard stimulus presentation	0.0	standard	n/a
70.815	0.2	auditory standard stimulus presentation	0.0	standard	n/a
72.85	0.2	auditory standard stimulus presentation	0.0	standard	n/a
74.886	0.2	auditory standard stimulus presentation	0.0	standard	n/a
77.714	0.2	auditory standard stimulus presentation	0.0	standard	n/a
80.545	0.2	auditory standard stimulus presentation	0.0	standard	n/a
83.174	0.2	auditory standard stimulus presentation	0.0	standard	n/a
86.202	0.2	auditory standard stimulus presentation	0.0	standard	n/a
88.834	0.2	auditory standard stimulus presentation	0.0	standard	n/a
91.068	0.2	auditory oddball stimulus presentation	1.0	target	n/a
91.068	0.326	behavioral response time following auditory oddball stimulus onset	1.0	target	n/a
93.103	0.2	auditory standard stimulus presentation	0.0	standard	n/a
95.337	0.2	auditory standard stimulus presentation	0.0	standard	n/a
97.372	0.2	auditory oddball stimulus presentation	1.0	target	n/a
97.372	0.383	behavioral response time following auditory oddball stimulus onset	1.0	target	n/a
100.201	0.2	auditory standard stimulus presentation	0.0	standard	n/a
103.229	0.2	auditory standard stimulus presentation	0.0	standard	n/a
106.075	0.2	auditory oddball stimulus presentation	1.0	target	n/a
106.075	0.275	behavioral response time following auditory oddball stimulus onset	1.0	target	n/a
108.905	0.2	auditory standard stimulus presentation	0.0	standard	n/a
110.94	0.2	auditory standard stimulus presentation	0.0	standard	n/a
113.968	0.2	auditory standard stimulus presentation	0.0	standard	n/a
116.798	0.2	auditory standard stimulus presentation	0.0	standard	n/a
119.229	0.2	auditory standard stimulus presentation	0.0	standard	n/a
122.258	0.2	auditory standard stimulus presentation	0.0	standard	n/a
124.706	0.2	auditory standard stimulus presentation	0.0	standard	n/a
127.337	0.2	auditory standard stimulus presentation	0.0	standard	n/a
129.951	0.2	auditory standard stimulus presentation	0.0	standard	n/a
131.986	0.2	auditory standard stimulus presentation	0.0	standard	n/a
134.42	0.359	behavioral response time following auditory oddball stimulus onset	1.0	target	n/a
134.42	0.2	auditory oddball stimulus presentation	1.0	target	n/a
136.653	0.468	behavioral response time following auditory oddball stimulus onset	1.0	target	n/a
136.653	0.2	auditory oddball stimulus presentation	1.0	target	n/a
139.482	0.2	auditory standard stimulus presentation	0.0	standard	n/a
142.311	0.2	auditory standard stimulus presentation	0.0	standard	n/a
145.141	0.2	auditory standard stimulus presentation	0.0	standard	n/a
147.375	0.2	auditory oddball stimulus presentation	1.0	target	n/a
147.375	0.354	behavioral response time following auditory oddball stimulus onset	1.0	target	n/a
150.005	0.352	behavioral response time following auditory oddball stimulus onset	1.0	target	n/a
150.005	0.2	auditory oddball stimulus presentation	1.0	target	n/a
152.041	0.2	auditory standard stimulus presentation	0.0	standard	n/a
154.077	0.2	auditory standard stimulus presentation	0.0	standard	n/a
156.906	0.2	auditory standard stimulus presentation	0.0	standard	n/a
159.537	0.325	behavioral response time following auditory oddball stimulus onset	1.0	target	n/a
159.537	0.2	auditory oddball stimulus presentation	1.0	target	n/a
162.168	0.2	auditory standard stimulus presentation	0.0	standard	n/a
164.401	0.2	auditory standard stimulus presentation	0.0	standard	n/a
166.635	0.2	auditory standard stimulus presentation	0.0	standard	n/a
169.662	0.316	behavioral response time following auditory oddball stimulus onset	1.0	target	n/a
169.662	0.2	auditory oddball stimulus presentation	1.0	target	n/a
172.692	0.2	auditory standard stimulus presentation	0.0	standard	n/a
175.52	0.2	auditory standard stimulus presentation	0.0	standard	n/a
178.151	0.2	auditory standard stimulus presentation	0.0	standard	n/a
180.584	0.2	auditory standard stimulus presentation	0.0	standard	n/a
183.016	0.2	auditory standard stimulus presentation	0.0	standard	n/a
185.432	0.2	auditory standard stimulus presentation	0.0	standard	n/a
188.062	0.2	auditory standard stimulus presentation	0.0	standard	n/a
190.098	0.335	behavioral response time following auditory oddball stimulus onset	1.0	target	n/a
190.098	0.2	auditory oddball stimulus presentation	1.0	target	n/a
193.126	0.2	auditory standard stimulus presentation	0.0	standard	n/a
195.161	0.49	behavioral response time following auditory oddball stimulus onset	1.0	target	n/a
195.161	0.2	auditory oddball stimulus presentation	1.0	target	n/a
197.196	0.2	auditory standard stimulus presentation	0.0	standard	n/a
199.629	0.2	auditory standard stimulus presentation	0.0	standard	n/a
202.475	0.2	auditory oddball stimulus presentation	1.0	target	n/a
202.475	0.385	behavioral response time following auditory oddball stimulus onset	1.0	target	n/a
204.51	0.45	behavioral response time following auditory oddball stimulus onset	1.0	target	n/a
204.51	0.2	auditory oddball stimulus presentation	1.0	target	n/a
207.537	0.2	auditory standard stimulus presentation	0.0	standard	n/a
209.572	0.2	auditory standard stimulus presentation	0.0	standard	n/a
212.617	0.2	auditory standard stimulus presentation	0.0	standard	n/a
214.834	0.2	auditory standard stimulus presentation	0.0	standard	n/a
217.465	0.2	auditory standard stimulus presentation	0.0	standard	n/a
219.501	0.2	auditory standard stimulus presentation	0.0	standard	n/a
222.33	0.2	auditory standard stimulus presentation	0.0	standard	n/a
224.977	0.2	auditory standard stimulus presentation	0.0	standard	n/a
227.212	n/a	n/a	0.0	standard	n/a
230.04	0.2	auditory standard stimulus presentation	0.0	standard	n/a
233.068	0.2	auditory standard stimulus presentation	0.0	standard	n/a
235.699	0.2	auditory standard stimulus presentation	0.0	standard	n/a
238.132	0.2	auditory standard stimulus presentation	0.0	standard	n/a
240.151	0.2	auditory standard stimulus presentation	0.0	standard	n/a
243.195	0.2	auditory standard stimulus presentation	0.0	standard	n/a
246.024	0.2	auditory standard stimulus presentation	0.0	standard	n/a
248.06	0.2	auditory standard stimulus presentation	0.0	standard	n/a
250.493	0.2	auditory standard stimulus presentation	0.0	standard	n/a
253.123	0.2	auditory standard stimulus presentation	0.0	standard	n/a
256.151	0.2	auditory standard stimulus presentation	0.0	standard	n/a
258.186	0.2	auditory standard stimulus presentation	0.0	standard	n/a
260.618	0.2	auditory standard stimulus presentation	0.0	standard	n/a
262.852	0.2	auditory oddball stimulus presentation	1.0	target	n/a
262.852	0.308	behavioral response time following auditory oddball stimulus onset	1.0	target	n/a
265.683	0.399	behavioral response time following auditory oddball stimulus onset	1.0	target	n/a
265.683	0.2	auditory oddball stimulus presentation	1.0	target	n/a
267.933	0.2	auditory standard stimulus presentation	0.0	standard	n/a
270.348	n/a	n/a	0.0	standard	n/a
272.4	0.2	auditory standard stimulus presentation	0.0	standard	n/a
275.245	0.2	auditory standard stimulus presentation	0.0	standard	n/a
277.496	0.2	auditory standard stimulus presentation	0.0	standard	n/a
280.524	0.2	auditory standard stimulus presentation	0.0	standard	n/a
283.354	0.2	auditory oddball stimulus presentation	1.0	target	n/a
283.354	0.328	behavioral response time following auditory oddball stimulus onset	1.0	target	n/a
285.57	0.2	auditory standard stimulus presentation	0.0	standard	n/a
287.788	0.2	auditory standard stimulus presentation	0.0	standard	n/a
289.823	0.2	auditory standard stimulus presentation	0.0	standard	n/a
292.057	n/a	n/a	1.0	target	n/a
294.307	0.2	auditory oddball stimulus presentation	1.0	target	n/a
294.307	0.45	behavioral response time following auditory oddball stimulus onset	1.0	target	n/a
296.938	0.2	auditory standard stimulus presentation	0.0	standard	n/a
299.965	0.2	auditory standard stimulus presentation	0.0	standard	n/a
302.001	0.2	auditory standard stimulus presentation	0.0	standard	n/a
304.848	0.2	auditory standard stimulus presentation	0.0	standard	n/a
306.866	0.2	auditory standard stimulus presentation	0.0	standard	n/a
309.894	0.2	auditory standard stimulus presentation	0.0	standard	n/a
312.326	0.2	auditory standard stimulus presentation	0.0	standard	n/a
314.361	0.2	auditory standard stimulus presentation	0.0	standard	n/a
316.596	0.2	auditory oddball stimulus presentation	1.0	target	n/a
316.596	0.405	behavioral response time following auditory oddball stimulus onset	1.0	target	n/a
319.027	0.2	auditory oddball stimulus presentation	1.0	target	n/a
319.027	0.378	behavioral response time following auditory oddball stimulus onset	1.0	target	n/a
n/a	n/a	n/a	4.562	0	standard
n/a	n/a	n/a	7.376	0	standard
n/a	n/a	n/a	9.394	0	standard
