onset	duration	trial_type	TrialNum	StimCond	StimulusNum	Response	RT	Correct
0.12	2.0	classification-probabilistic	1.0	1.0	10.0	L	1.639	1.0
5.315	2.0	classification-probabilistic	3.0	1.0	3.0	R	1.009	0.0
9.1895	2.0	classification-probabilistic	5.0	1.0	11.0	R	1.615	1.0
14.1065	2.0	classification-probabilistic	7.0	1.0	10.0	L	1.075	1.0
17.583	2.0	classification-probabilistic	9.0	1.0	3.0	L	0.789	1.0
22.3875	2.0	classification-deterministic	11.0	2.0	10.0	L	1.076	1.0
26.2245	2.0	classification-deterministic	13.0	2.0	10.0	L	1.182	1.0
29.594	2.0	classification-deterministic	15.0	2.0	11.0	R	1.487	1.0
33.8865	2.0	classification-deterministic	17.0	2.0	10.0	L	0.85	1.0
38.8095	2.0	classification-deterministic	19.0	2.0	2.0	R	1.465	1.0
43.0795	2.0	classification-probabilistic	21.0	1.0	14.0	R	1.273	1.0
47.201	2.0	classification-probabilistic	23.0	1.0	2.0	R	0.826	1.0
51.4935	2.0	classification-probabilistic	25.0	1.0	10.0	L	1.373	1.0
55.2025	2.0	classification-deterministic	27.0	2.0	13.0	L	1.568	1.0
59.719	2.0	classification-probabilistic	29.0	1.0	10.0	L	1.203	1.0
63.7245	2.0	classification-probabilistic	31.0	1.0	10.0	L	1.383	1.0
69.816	2.0	classification-deterministic	33.0	2.0	2.0	R	0.901	1.0
73.9995	2.0	classification-deterministic	35.0	2.0	5.0	L	1.288	0.0
81.482	2.0	classification-deterministic	37.0	2.0	1.0	L	1.214	1.0
84.6865	2.0	classification-deterministic	39.0	2.0	13.0	R	1.614	0.0
87.696	2.0	classification-probabilistic	41.0	1.0	3.0	-	0.0	-1.0
91.3145	2.0	classification-probabilistic	43.0	1.0	4.0	L	1.029	1.0
97.175	2.0	classification-deterministic	45.0	2.0	10.0	L	1.24	1.0
102.2015	2.0	classification-probabilistic	47.0	1.0	4.0	L	0.875	1.0
109.68	2.0	classification-probabilistic	49.0	1.0	5.0	R	1.45	1.0
112.8825	2.0	classification-probabilistic	51.0	1.0	6.0	L	1.638	1.0
118.209	2.0	classification-probabilistic	53.0	1.0	14.0	R	1.541	1.0
122.585	2.0	classification-deterministic	55.0	2.0	2.0	R	0.926	1.0
130.0935	2.0	classification-deterministic	57.0	2.0	1.0	L	1.177	1.0
136.316	2.0	classification-deterministic	59.0	2.0	3.0	R	2.189	1.0
142.092	2.0	classification-probabilistic	61.0	1.0	3.0	R	2.028	0.0
149.2085	2.0	classification-probabilistic	63.0	1.0	11.0	R	2.023	1.0
152.494	2.0	classification-probabilistic	65.0	1.0	7.0	L	1.952	1.0
155.4215	2.0	classification-probabilistic	67.0	1.0	1.0	R	0.95	1.0
159.084	2.0	classification-deterministic	69.0	2.0	3.0	R	1.66	1.0
162.7195	2.0	classification-probabilistic	71.0	1.0	6.0	-	0.0	-1.0
169.679	2.0	classification-probabilistic	73.0	1.0	8.0	R	1.751	1.0
177.1785	2.0	classification-probabilistic	75.0	1.0	8.0	R	0.98	1.0
180.6155	2.0	classification-probabilistic	77.0	1.0	5.0	R	1.356	1.0
185.0235	2.0	classification-deterministic	79.0	2.0	11.0	R	1.827	1.0
190.792	2.0	classification-probabilistic	81.0	1.0	5.0	R	1.755	1.0
194.084	2.0	classification-deterministic	83.0	2.0	3.0	R	0.974	1.0
197.408	2.0	classification-deterministic	85.0	2.0	13.0	L	1.506	1.0
201.385	2.0	classification-deterministic	87.0	2.0	9.0	L	1.705	0.0
204.4085	2.0	classification-deterministic	89.0	2.0	13.0	L	1.746	1.0
210.5975	2.0	classification-probabilistic	91.0	1.0	11.0	R	1.687	1.0
215.5945	2.0	classification-deterministic	93.0	2.0	3.0	R	1.75	1.0
221.3975	2.0	classification-deterministic	95.0	2.0	7.0	L	1.553	1.0
224.499	2.0	classification-deterministic	97.0	2.0	6.0	L	1.257	1.0
227.8075	2.0	classification-probabilistic	99.0	1.0	4.0	L	0.981	1.0
232.8155	2.0	classification-probabilistic	101.0	1.0	3.0	R	0.901	0.0
236.6135	2.0	classification-deterministic	103.0	2.0	5.0	-	0.0	-1.0
241.721	2.0	classification-deterministic	105.0	2.0	7.0	L	1.07	1.0
248.8145	2.0	classification-deterministic	107.0	2.0	11.0	R	1.487	1.0
252.0235	2.0	classification-probabilistic	109.0	1.0	11.0	R	1.813	1.0
255.5945	2.0	classification-deterministic	111.0	2.0	12.0	L	1.472	0.0
260.65	n/a	n/a	113.0	2.0	8.0	R	1.507	1.0
260.7	2.0	classification-deterministic	n/a	n/a	n/a	n/a	n/a	n/a
263.6985	2.0	classification-deterministic	115.0	2.0	1.0	R	1.796	0.0
269.886	2.0	classification-deterministic	117.0	2.0	6.0	R	1.316	0.0
275.1885	2.0	classification-probabilistic	119.0	1.0	13.0	L	1.244	1.0
279.309	2.0	classification-deterministic	121.0	2.0	2.0	R	1.224	1.0
283.422	2.0	classification-deterministic	123.0	2.0	4.0	L	0.898	1.0
286.6205	2.0	classification-probabilistic	125.0	1.0	6.0	R	1.429	0.0
291.394	2.0	classification-probabilistic	127.0	1.0	10.0	L	1.402	1.0
295.577	2.0	classification-probabilistic	129.0	1.0	11.0	R	1.433	1.0
298.9085	2.0	classification-deterministic	131.0	2.0	13.0	L	1.274	1.0
305.584	2.0	classification-deterministic	133.0	2.0	3.0	R	1.127	1.0
311.981	2.0	classification-probabilistic	135.0	1.0	11.0	L	1.637	0.0
315.1895	2.0	classification-probabilistic	137.0	1.0	14.0	R	1.409	1.0
319.384	2.0	classification-probabilistic	139.0	1.0	10.0	L	1.328	1.0
322.4935	2.0	classification-probabilistic	141.0	1.0	10.0	L	1.065	1.0
329.8155	2.0	classification-deterministic	143.0	2.0	1.0	R	1.729	0.0
337.284	2.0	classification-deterministic	145.0	2.0	7.0	L	2.012	1.0
342.7025	2.0	classification-deterministic	147.0	2.0	3.0	R	1.159	1.0
349.9815	2.0	classification-probabilistic	149.0	1.0	11.0	R	1.158	1.0
354.8945	2.0	classification-probabilistic	151.0	1.0	10.0	L	1.024	1.0
359.0035	2.0	classification-probabilistic	153.0	1.0	5.0	R	1.69	1.0
363.884	2.0	classification-deterministic	155.0	2.0	5.0	R	1.854	1.0
369.197	2.0	classification-deterministic	157.0	2.0	2.0	R	1.432	1.0
372.6825	2.0	classification-deterministic	159.0	2.0	12.0	R	1.793	1.0
379.8965	2.0	classification-deterministic	161.0	2.0	6.0	R	1.757	0.0
385.8965	2.0	classification-probabilistic	163.0	1.0	6.0	R	1.646	0.0
389.5005	2.0	classification-probabilistic	165.0	1.0	5.0	R	1.222	1.0
393.3895	2.0	classification-probabilistic	167.0	1.0	9.0	L	1.375	1.0
396.313	2.0	classification-deterministic	169.0	2.0	2.0	R	0.829	1.0
400.5135	2.0	classification-deterministic	171.0	2.0	10.0	L	0.988	1.0
407.0965	2.0	classification-probabilistic	173.0	1.0	14.0	R	1.75	1.0
413.486	2.0	classification-probabilistic	175.0	1.0	2.0	R	0.875	1.0
417.2985	2.0	classification-probabilistic	177.0	1.0	11.0	R	1.786	1.0
421.7205	2.0	classification-deterministic	179.0	2.0	7.0	L	1.535	1.0
426.2955	2.0	classification-deterministic	181.0	2.0	13.0	L	1.816	1.0
430.921	2.0	classification-deterministic	183.0	2.0	1.0	R	1.118	0.0
434.3085	2.0	classification-probabilistic	185.0	1.0	1.0	R	1.479	1.0
438.588	2.0	classification-probabilistic	187.0	1.0	12.0	R	1.741	-1.0
441.609	2.0	classification-deterministic	189.0	2.0	10.0	L	1.139	1.0
445.506	2.0	classification-deterministic	191.0	2.0	7.0	L	1.548	1.0
450.679	2.0	classification-probabilistic	193.0	1.0	8.0	-	0.0	-1.0
454.609	2.0	classification-probabilistic	195.0	1.0	10.0	L	1.715	1.0
458.411	2.0	classification-deterministic	197.0	2.0	13.0	L	1.647	1.0
461.514	2.0	classification-deterministic	199.0	2.0	9.0	R	1.83	1.0
